Time,ZephyrHR,COSMED,ANKLE_AccX,ANKLE_AccY,ANKLE_AccZ,THIGH_AccX,THIGH_AccY,THIGH_AccZ
0,107.59372739726,1.74386426044511,-1.03250066334243,-0.131652203520516,-0.210613095890447,-0.925307516164494,-0.235265163099424,-0.238881248255125
1.00272739726006,108,2.19396352089022,-1.04975778465044,-0.101529552984012,-0.138538390692589,-1.02206226026632,0.250198588359103,-0.0314974522650794
2.00545479452103,108,2.63730017255469,-0.944105975050382,0.169142538967583,-0.351681623444778,-0.948010974785287,-0.16008399355521,-0.337768664865949
3.00818219178109,108.601909589041,2.25864189673971,-0.533913916767382,0.138164191225519,0.00553484534427094,-0.925827936154411,-0.172890804110377,-0.0998375827516688
4.01090958904115,109,1.87998362092472,-0.998017182530266,0.0807822243069417,-0.390521627763449,-0.925378837586137,-0.18308018407682,-0.554388682377975
5.01363698630121,109,1.50564576056169,-0.903078429641897,0.375506371516052,-0.121358494893811,-1.46271959633687,0.689495830173168,0.0573665123519199
6.01636438356218,109,1.39172088732188,-0.750942387132327,-0.0470611678154279,-0.0783398751065386,-0.828218818851574,-0.420122370275422,-0.131429249289126
7.01909178082224,109.612819178083,1.29776803509597,-0.366693452505728,0.395076387212898,-0.103838963784991,-1.11249154928816,-0.211513745319149,-0.315995771508051
8.0218191780823,110,2.10168216448279,-1.52635042497009,0.143267468308136,-0.949913213448429,-1.20287729408696,-0.233000335303525,-0.440706219344229
9.02454657534236,110.618273972603,2.88338948445206,-1.54151374664061,0.114593376743114,-0.289560268946981,-1.25338273636778,0.402432552060717,-0.314597415061874
10.0272739726033,111,2.87087043289726,-1.37946907671129,0.170359582676369,-0.24783039253917,-1.23073420960494,0.523913416118233,-0.203671539675194
11.0300013698634,111.623728767124,2.85476654493149,-1.34763117536871,0.260902041932373,-0.467059882209071,-1.09005484793481,0.714203087734899,-0.00251286080741239
12.0327287671234,112,2.73241709034247,-1.20477808853275,0.215346739797633,-0.407510661335992,-1.14535857353487,0.457643770555473,-0.225180998524763
13.0354561643835,112.629183561644,2.61006763575346,-1.68393814284052,0.501442073549426,-0.604074693457623,-1.17141325939472,0.67042902769477,-0.238708263260952
14.0381835616436,113,2.5028931467807,-1.97290259246676,0.518307922993246,-0.639833471932698,-1.37595810277853,0.678804708223303,-0.286500366444222
15.0409109589045,113,2.75248202323293,-1.94469416800417,0.652158395788434,-1.17131058163625,-1.27993744384837,0.684982128318914,-0.406267162205476
16.0436383561646,113,3.00132070179452,-1.67687739218597,0.42321689458941,-0.719929986424172,-1.09919253942965,0.469962644629033,-0.203482455483788
17.0463657534247,113,3.23468544895885,-1.33875922637762,0.308190737155451,-0.265615863838805,-1.15373243560456,0.350815093809904,-0.183492448080963
18.0490931506847,113,3.4583198518356,-1.30362469014515,0.323986618747705,-0.143765514984987,-1.16754782785289,0.385684818908625,-0.206658246569147
19.0518205479457,113.645547945206,3.50340247561645,-1.23352421918627,0.172138195077114,-0.3436800454859,-1.06582643837158,0.382221926025622,-0.173719315062433
20.0545479452057,114,3.54848509939726,-1.07549736849224,-0.0692892222286539,-0.257514445895189,-1.02813343946548,0.13040429478273,-0.224704813140187
21.0572753424658,114,3.58877500434247,-1.3068892904104,0.219764410138099,-0.155449740833547,-1.09271837123948,0.380979018951364,-0.178114788325322
22.0600027397259,114,3.55376477726714,-1.2043148828771,0.201139527280389,-0.279561522610599,-1.032594889055,0.378717821014652,-0.127068366720502
23.0627301369859,114.656457534246,3.5147274935891,-1.21372695205534,0.301081846977664,-0.13673386342454,-1.07412052238095,0.218446713562034,-0.340733300757368
24.0654575342469,115,3.41802780582191,-1.07612885844817,0.0256247115906825,-0.43157199772097,-1.00275351028332,-0.00181007635448965,-0.191584857872122
25.0681849315069,115,3.32132811805481,-0.958094278301307,0.00474176885242168,-0.330844218844172,-0.90260160386504,-0.163253396223232,-0.273312708665739
26.070912328767,115,3.16630865149687,-0.932384497207608,0.0859533525937765,-0.351957816963572,-0.918655905981762,0.0421197272079793,-0.209043558402556
27.0736397260271,115,2.27548813858952,-1.01009411590457,0.277584742455553,-0.436989807713362,-0.985034367668022,0.0345364127640923,-0.414757754005419
28.076367123288,115,1.45566767890868,-1.43883207650012,0.160944290699239,0.160884913179177,-1.76316474845882,0.367770867190467,-0.0829453276434764
29.0790945205481,114.327178082191,1.46495627703196,-1.97631993322208,-0.987647538387501,-0.109678443415989,-1.08627328070488,-0.0236088407604983,-0.173068709027459
30.0818219178082,114,1.47424487515525,-0.592834128217856,0.222414520753518,-0.247692435750671,-0.652767466254161,-0.789838325161641,-0.252099032374035
31.0845493150682,114,1.55738739090369,-0.0791289722387437,0.360553432663666,-0.152863037441034,-1.17271568219056,-0.260645119453005,-0.173728539010684
32.0872767123292,114,2.41518809062004,-1.31688704926599,0.255557220221404,-0.63522108709964,-1.51990729599588,-0.0387471804145257,-0.272248960262247
33.0900041095892,114,3.20362400041096,-1.88428918218556,1.02587194907046,-0.463838511373043,-1.23103447397594,0.533469696936424,-0.0656314677544504
34.0927315068493,114,3.31136705924655,-1.14696576828155,0.0921290173775553,-0.398718040575782,-1.04108247959002,0.14603845287703,-0.451698573992048
35.0954589041094,114,3.42475190295883,-1.07594384840385,-0.0107927808990713,-0.218113879816975,-0.987341834530217,-0.312228650975287,-0.31359509096486
36.0981863013694,114,3.59011167804099,-0.988214461158781,0.00616121351193466,-0.40138674389553,-0.939312339469392,-0.279504869861095,-0.473371913863282
37.1009136986304,114.694641095891,3.75547145312329,-0.884069125756982,0.322766072629518,-0.362512993655127,-0.963443713604484,0.126945678320897,-0.324838945391594
38.1036410958905,115,3.91467639263012,-0.660188759700162,0.107924286354181,-0.465735838180061,-0.541752520449797,-0.407079323500313,-0.0347606992689599
39.1063684931505,115,4.02201501808215,-0.885919810931915,1.65525091775393,-0.170233406649535,-1.53882123287181,0.0485362054748021,0.491027758840378
40.1090958904106,115,4.12935364353418,-1.94539372670822,-1.84959875139213,0.698965000955289,-1.05850013473044,0.380197887175119,-0.558125178526743
41.1118232876715,115,4.17368805584927,-1.68163477066203,-0.0274450738710475,-0.270621081364422,-0.469505003285651,-0.951921423676498,-0.29310678780941
42.1145506849316,115,3.72951491432197,-0.432786526176327,0.215390040440614,-0.0105694318257171,-0.813030296492646,-0.567518852455741,-0.304708316268501
43.1172780821917,115,3.27317381720566,0.0399048855437932,0.580975115001559,-0.179346808766184,-1.27284323007645,-0.348001006519362,-0.2272775979037
44.1200054794517,115,2.72732913123318,-1.6603966882645,0.167132693154523,-0.7888529709649,-1.22947822149904,-0.0117726596744786,-0.297238172379396
45.1227328767118,115,2.18148444526069,-1.38438802548394,0.177789813368314,-0.203019881755568,-1.19990663493156,0.365002750137242,-0.228246138767047
46.1254602739727,115,1.79239853962324,-0.975200591912661,-0.00689711559181105,-0.44144853399514,-0.934579675400734,-0.0775994365822757,-0.253452185193595
47.1281876712328,115,2.47277414684912,-0.922747412344215,-0.0246265352748905,-0.350461809048249,-0.906331287660738,-0.237820160279975,-0.397685181363807
48.1309150684929,115,3.00682846054302,-0.961822666142056,0.066727622214729,-0.301440723506055,-0.615432808418254,-0.967051992724649,0.137760915647034
49.1336424657529,115,2.58934666892153,-1.44187277397412,-1.44167826473924,-0.0146887398956504,-1.4249135445118,0.645937277364461,-0.463159329808892
50.1363698630139,115,2.17186487729966,-1.97203187261091,-0.451294229433237,-0.313481346717383,-0.494447669724582,-0.756968573004598,-0.126978911771418
51.139097260274,115,1.75438308567818,-0.508238130688941,0.279136951779792,0.00289932575132695,-0.79203206738785,-0.476386149603042,-0.272954770959895
52.141824657534,115,1.53360742907036,0.00335393268132821,0.133316129257782,-0.177650256292014,-1.02591469340331,-0.199909778623734,-0.0105472583993521
53.1445520547941,115,2.48063499062495,-1.7250131177983,0.268671397172247,-0.474578776004892,-1.40465553810953,0.0266911149885688,-0.605778299789624
54.147279452055,115,3.4276625521804,-1.73168521233541,0.430198770563834,-0.546033193838388,-1.28773016133839,0.401551489273994,-0.205847937063654
55.1500068493151,114.256265753424,4.21380876789043,-1.07199586179563,-0.0469742839555035,-0.235503290118628,-0.998597235344345,0.00827083230498617,-0.332485286348469
56.1527342465752,114,4.10462178160278,-0.955720183219603,0.125259644330184,-0.50010294635188,-0.879525421371182,-0.150427344518561,-0.260771249623424
57.1554616438352,114,3.99543479531513,-1.01893945499951,0.160511511984583,-0.373930417128051,-0.881599486306995,-0.160950036947583,-0.285744892158565
58.1581890410953,114,3.91200892164379,-0.89332630244089,0.173702181941076,-0.393768392694835,-0.697815742243355,-0.260158211784837,-0.274372964532438
59.1609164383563,114,3.96334856438355,-1.94739146572365,-1.40864360050298,-0.304943612377384,-1.57163975341899,0.123065973484013,0.886536529253662
60.1636438356163,114,4.01468820712327,-1.98301579726023,-2.06836045003197,0.578086519445076,-1.07731123159557,0.843430565287351,-0.649622433053114
61.1663712328764,114,4.06602784986299,-1.85406302240072,-0.148486415954174,-0.521130837570032,-0.490707667830193,-0.855997219767094,-0.160383437801642
62.1690986301364,114,4.04247482754824,-0.374355063016416,0.0326742452960884,-0.186068423424969,-1.01605934124341,-0.343975184564499,-0.253866708167428
63.1718260273974,113.234446575342,3.65676236449318,-1.09367474571399,-0.161851505443068,-0.332684569332758,-1.76740053925894,-0.593517146603668,-0.728182562251671
64.1745534246575,113,3.27104990143847,-1.16714937672362,0.0293497843537714,-0.209191850685502,-1.01966391713288,-0.0529177851179495,-0.499186385541102
65.1772808219175,113,2.94276516053428,-0.995588724620507,0.115935972980048,-0.490541736673617,-0.951568921234152,-0.148065661368604,-0.363397380829938
66.1800082191776,113,2.87695114781512,-1.05385297385445,0.17357171112415,-0.541584357662525,-0.85787874391169,-0.348983172572724,-0.439322300680304
67.1827356164376,113,2.84117287016429,-1.36294965044382,-0.460944070245021,0.041932260100996,-1.71231121642624,1.53431109584692,-0.0993585003161532
68.1854630136986,113,2.93775055943148,-1.98487590137011,-1.1679079815741,-0.445007580238564,-0.525684027402802,-0.04956828779946,0.361098858319955
69.1881904109587,113,3.03399636990863,-0.412048511304199,0.152369888750698,-0.235345199547756,-0.875724404782626,-0.481231119873635,-0.436042282217673
70.1909178082187,112.215354794521,3.12883098471683,-1.41164757175036,0.191515934776402,-0.559027684216956,-1.53858688802993,-0.278494334720795,-0.469229930920673
71.1936452054788,112,3.22366559952503,-1.46246476713909,0.131028262458053,-0.210592401101914,-1.16103403197506,0.202670230057106,-0.375851544723047
72.1963726027398,112,3.32131416099998,-1.02073717143096,-0.0906109815906413,-0.260670507142249,-0.96280226500576,-0.25376362000404,-0.278408845001638
73.1990999999998,112,3.43032065635612,-0.932318266436803,0.0579222948812604,-0.335328814806619,-0.870082538083753,-0.280933370417232,-0.327203300820932
74.2018273972599,112,3.53932715171226,-0.890684154112573,0.238837907518306,-0.445596071909615,-0.860273972609592,-0.57387413355502,-0.283166708906775
75.2045547945199,112,3.62736705336986,-1.78212214791067,-0.308988003457356,-0.392429657651559,-1.69357700933709,0.243728804183296,-0.610930023029557
76.2072821917809,112,3.63494767249315,-1.86126995973399,-1.6043132750426,0.501582836279828,-1.03202879994846,0.2325874109255,-0.795354314480757
77.210009589041,112,3.64252829161644,-0.952048359409447,0.257242564249086,-0.200823487294756,-0.538694589075286,-0.8575424752578,-0.339007405550423
78.212736986301,112.806464383561,3.65010891073972,-0.21242457316639,0.0535829029390296,-0.277318765747438,-1.14117997841963,-0.216385760401401,-0.241272841733322
79.2154643835611,113,3.54016598191822,-1.19157498538041,0.0550258516817938,-0.531522027305936,-1.62541557534194,-0.358904432191125,-0.562149403424904
80.2181917808211,113.811919178082,3.00765255669231,-1.47979164508638,0.167501056542193,-0.584001768076002,-1.20886625582587,0.31499934054651,-0.30822389197587
81.2209191780821,114,2.71948755205463,-1.15932550528996,0.00371133004569972,-0.0870402698548251,-0.93975085616926,-0.268463978080402,-0.497906104119294
82.2236465753422,113.182626027397,3.28251898561615,-0.919528287616318,0.0236162866418555,-0.308553989143675,-0.879065707260479,-0.26169082500627,-0.450743469141303
83.2263739726022,113,3.84555041917768,-1.10022165533776,0.319257475620038,-0.321284373449811,-0.952096746575119,-0.0227630520295351,-0.569402419724061
84.2291013698623,113,4.19635188958937,-1.21281371028092,-0.179549880149791,-0.0378879393754366,-1.12722287385861,-0.521660845695643,-0.208288817902643
85.2318287671233,113,3.84142650005488,-1.38008880548095,-1.93336835706942,0.597664309406228,-1.70239847107656,1.49773506931553,0.0180146700001018
86.2345561643833,112.171716438356,3.547128642411,-1.19006701395764,0.0245256959791132,-0.568039459963398,-0.475063574788446,-0.90280387300565,-0.281339936653266
87.2372835616434,112,3.44840678772609,-0.303482212542197,0.0752715904613886,-0.210200745796741,-0.912254062085316,-0.398582185694004,-0.43004443677887
88.2400109589034,112,3.34968493304118,-0.59119191749099,-0.209890693063829,-0.276511246711996,-1.74652718250751,-0.664407066447353,-0.682043280981213
89.2427383561635,112,3.2614354656165,-1.54868194521194,0.215642967125042,-0.400589767130539,-1.27784843835512,0.408692758900718,-0.289000257531249
90.2454657534245,112,3.20549330412331,-1.08092518309504,0.0817959711787952,-0.209656150213262,-0.902698789587316,-0.225388427544213,-0.241782226971146
91.2481931506845,112,3.18241671599995,-1.01760801826562,0.158643632488727,-0.378073885120782,-0.878215330630892,-0.191483414103098,-0.471959215435503
92.2509205479446,112,3.25781178899994,-1.59802643021357,-0.127564679665176,-0.466757392858117,-1.26573208872466,-0.540578251528084,0.0320151328296011
93.2536479452046,112,3.36926178099521,-1.60176658077103,-1.55338126717726,-0.112794544946434,-1.65000814525963,1.48092074800033,0.119761198298638
94.2563753424656,112,3.58567375029673,-1.95067878940789,-0.399029533447833,-0.381602904457739,-0.540553505202528,-0.539449975367304,0.0158181830468623
95.2591027397257,112,3.80208571959805,-0.314901001655263,0.0986395107144152,-0.0862680409445836,-0.690471726295139,-0.589864719870355,-0.227435006302802
96.2618301369857,112,3.93627761654802,-0.833430100557157,-0.411068888023181,-0.378543802516939,-1.38203387119927,-0.556006039386227,-0.319473679031191
97.2645575342458,111.141715068494,3.8410586229042,-1.70442199180347,0.353095362759238,-0.334738794132491,-1.25575212420215,0.409125368590021,-0.395189141365447
98.2672849315068,111,3.7458396292603,-1.07159420178476,0.0633182251992358,-0.497350929653897,-1.024474576711,0.0889586523656267,-0.195275452404413
99.2700123287668,111,3.61596768972614,-0.963860015760659,-0.0241399379741476,-0.576336632142971,-0.896859960277378,-0.0911523205552607,-0.173735667585813
100.272739726027,111,3.39334716662345,-0.92301096753917,0.188190608819623,-0.601626266397608,-0.915460904923699,-0.160932707374442,-0.384293992507049
101.275467123287,111,3.26629156156153,-0.763656734742302,0.0400310439884241,-0.398877541963835,-0.640955710913915,-0.407615788692225,-0.202354378260693
102.278194520547,111,3.38812628275328,-1.40970459725302,-0.644702959004477,0.0182280647508718,-1.5289947333085,0.821678353546082,-0.267584935408996
103.280921917808,111,3.50996100394515,-1.30729103860313,0.0348128487102474,-0.333281655548575,-0.453661275180458,-0.98437318066672,-0.242157325516877
104.283649315068,111,3.5233458187673,-0.357360592486572,-0.0417074623501639,-0.0788794417589447,-1.07690088925826,-0.223737652974483,-0.538461282590549
105.286376712328,111,3.26545101704133,-0.864474527461625,-0.217466048770548,-0.415953863702979,-1.54533146296613,-0.590126998349475,-0.697907425679156
106.289104109588,111,3.00755621531535,-1.60019833632496,0.244230825909651,-0.59293088472914,-1.30891390358948,0.557052262665627,-0.190527116159118
107.291831506849,111,2.90554100378071,-1.10946647946346,0.0191988270557549,-0.569034908471818,-1.01079964219735,0.0783486158159785,-0.196705860633638
108.294558904109,111,3.1782861982601,-0.967695732754241,0.0711712963411034,-0.401029806794021,-0.928130955479386,-0.255387902219475,-0.30876457632881
109.297286301369,111,3.4510313927395,-0.83235942190845,0.0984762541024172,-0.339002037949401,-0.966697572601914,0.152324961637363,-0.650610200003799
110.300013698629,111,3.6597095073698,-0.977209760409577,-0.0447965059788247,-0.272465796110911,-0.684411767115098,-0.938189800840883,0.15215580106875
111.302741095889,110.10353150685,3.72025418761636,-1.44645681667621,-1.74032501758723,0.493345674727266,-1.65978497438957,1.57383541364096,-0.116995466516901
112.30546849315,110,3.78079886786298,-1.49974507195571,0.0408850886868028,-0.325819657696404,-0.380616198500907,-0.954832203840976,-0.28867685548212
113.30819589041,110,3.72326110191806,-0.295591763533843,0.0599580022878861,-0.183862764153569,-1.1186117698562,-0.305888670137773,-0.198855987399
114.31092328767,109.095349315069,3.4029899712332,-1.36673730365278,0.128598900000011,-0.549369726027161,-1.20606810047052,-0.0277636694605278,-0.398811466224787
115.313650684931,109,3.14407298743394,-1.25360702330749,0.117175640509874,-0.11220589671544,-1.13391050821635,0.144183915472576,-0.294237530898039
116.316378082191,109,3.01825743847495,-1.03693657123353,0.162532823019827,-0.046303191955345,-0.917620663634254,-0.194999324449838,-0.201443595822286
117.319105479452,108.087167123288,2.89244188951607,-0.874903774082171,0.24461132748163,-0.595476058415264,-0.865842778899551,-0.141128657002849,-0.198352320559359
118.321832876712,108,2.89781143956138,-0.950723000257066,0.185951703387654,-0.492007728726382,-0.763867300546181,-0.251533509478217,-0.0100707465011048
119.324560273972,108,3.1772916197257,-1.16993587528685,1.32896391778596,-1.36020381623659,-1.28063056843647,0.00122305190383842,-0.527013947978502
120.327287671233,108,3.38466020727394,-1.98497,-0.330834867290297,-0.19482771229608,-0.615794270170686,-0.300986563846619,0.486150459609443
121.330015068493,108,3.44503442386297,-0.44758629371257,-0.00211249678850649,-0.0408061604098107,-0.952399952323819,-0.416013716717453,-0.331325766025948
122.332742465753,108,3.505408640452,-0.454936826537946,0.125469986979013,-0.256424302678742,-1.57505875304816,-0.628870778098145,-0.541615427674871
123.335469863013,108,3.55788087805475,-1.32859326531724,0.106170321138493,-0.410659776963849,-1.13191584382788,0.282746248239138,-0.205933302471597
124.338197260273,108,3.5948263690068,-1.08580933219247,-0.0512228508226384,-0.381734925340346,-0.984439935278548,-0.0187718808648885,-0.376395737639382
125.340924657534,108.934652054794,3.63719297112325,-0.952093408586249,0.0335340581985755,-0.906487243521142,-0.903878951235569,-0.321283693700606,-0.478948559477017
126.343652054794,109,3.68995648676708,-0.940987734925817,0.28333220418239,-0.422976317276541,-1.00486951966219,-0.0164069229469119,-0.466518681577896
127.346379452054,109,3.7427200024109,-1.71228589314862,-0.6354071457132,-0.127460215965785,-1.70262475893945,0.216787572416864,-0.36641885490945
128.349106849314,109,3.73240901989057,-1.98266681452044,-0.319116738497513,-0.234058513728212,-0.805456574279165,0.263409865205381,0.313728759436781
129.351834246575,109,3.60541025260281,-0.380714275351692,-0.00286517320790026,-0.159565057543073,-1.04555817351148,-0.235092643838812,-0.163383735163482
130.354561643835,109,3.47841148531517,-1.23090826438064,-0.0735815198076602,-0.395813226854421,-1.71612870664362,-0.705877999539873,-0.29777276179238
131.357289041095,109.951016438356,3.40308527739724,-1.56937546781635,0.0903960649407927,-0.40828171803665,-1.19336970137226,0.359155855417596,-0.246891885140006
132.360016438355,110,3.42000630222601,-1.08859301781167,-0.103755260712316,-0.257875448823369,-0.985417,-0.26357162550378,-0.25007164311207
133.362743835615,110,3.36983716371713,-0.977561587256529,0.16818367068178,-0.30022990794384,-0.881478424658404,-0.275181623888576,-0.205739642521877
134.365471232876,110,3.20268584901839,-1.02232629680376,-0.068403626121589,-0.434195629912079,-0.955847348978878,-0.286191055592007,-0.261210751592457
135.368198630136,110,3.03553453431979,-0.47892877600643,1.50568838197743,-0.484484735193853,-1.07734114972881,-0.102423997935457,0.290877044632665
136.370926027396,110.964653424657,3.08489358275979,-1.97819897214617,-0.82749873013685,-0.407787182236714,-0.706614736962098,-0.274346962893655,0.365283702884021
137.373653424656,111,3.4987643023419,-0.43387196968301,0.0243518936376351,-0.0915030002355694,-1.01750192328319,-0.344484352879782,-0.277480389595441
138.376380821917,111.970108219178,3.78004887258443,-1.10173173491603,-0.102681169776073,-0.309180542556031,-1.69645023046912,-0.627635308035034,-0.497352047682338
139.379108219177,112,3.84323406831045,-1.8167555599588,0.337895653105747,-0.929843724034968,-1.33227587671773,0.442473997818127,-0.257135466856563
140.381835616437,112,3.90641926403646,-1.15379948356834,0.141122124182692,-0.136928553682966,-0.960434946667487,-0.0726806300873054,-0.349775990411811
141.384563013698,112.978290410958,3.88865689096823,-0.953654875610015,0.0344388653728382,-0.407560327939562,-0.890950713424029,-0.245983446942369,-0.787329631252262
142.387290410958,113,3.74226203339279,-0.927536717090876,0.251939557284462,-0.593498299845207,-0.828897165527603,-0.556085253427239,-0.359971184408891
143.390017808219,112.016254794521,3.59586717581747,-1.74938291804503,-0.233914879620614,-0.178835249776174,-1.93304026527447,0.48371807497275,-0.925367749272309
144.392745205479,112,3.48846459863019,-1.98437814383563,-1.19030084556111,0.169328029299336,-1.36953397089839,1.17911455275317,-1.1492073760718
145.395472602739,112,3.44093532000006,-0.538786600003696,0.188265372015728,-0.103391239992526,-0.570708333328939,-0.768733680005326,-0.363507600002575
146.398199999999,112,3.38065120443847,-0.570938142957709,0.0840547968387504,-0.273602070928138,-1.51559335649988,-0.515327510135873,-0.608318862200101
147.40092739726,112,3.30122182487677,-1.64132064657493,0.0177944769545371,-0.444323022328835,-1.24749402534327,0.631776769040798,-0.473049268564016
148.40365479452,112,3.22179244531515,-1.10520857673084,0.0565363954881241,-0.207994692321503,-0.984578328886454,0.111561797373013,-0.359177576794447
149.40638219178,112,3.22663282260258,-1.0398227047898,0.169259426025412,-0.148606083587287,-0.859362709589344,-0.213508947260052,-0.673888616430056
150.40910958904,112,3.35374857475324,-0.914773768010661,0.191068807945837,-0.920692767124991,-0.907777858772693,-0.0483769278950161,-0.485875565226907
151.411836986301,112,3.44321773523285,-1.7769244402869,-0.872482242764106,0.023610148917076,-1.40971538634317,0.708180599588414,1.23706136611091
152.414564383561,112,3.47927581243832,-1.98235891095796,-1.8590898070344,0.233682234060847,-0.888696187387149,0.402524436301251,0.618237866354817
153.417291780821,112,3.51533388964379,-0.869501220833134,0.205532588499354,-0.166353802192845,-0.72273260759023,-0.49174899350444,-0.455892798394798
154.420019178081,112,3.44211620458935,0.012871328041192,0.24301063394734,-0.371579539353287,-1.17748954622895,-0.317527645542822,-0.402497438344471
155.422746575341,112,3.21897927687707,-1.96229086712377,0.881095768213723,-0.58396485930895,-1.24657103378502,0.581652629858278,-0.0599317766991991
156.425473972602,112,2.99584234916458,-1.12673417664501,0.0511697031525643,-0.435295482329633,-1.13468527488465,0.190066610770295,-0.24207663557332
157.428201369862,112,2.94732494003632,-1.07133320621591,-0.10499863068109,-0.289826845094385,-0.917868562374352,-0.183128979360301,-0.298800001280056
158.430928767122,112,3.13050986581711,-0.87160567814337,0.126584807552113,-0.740626583583814,-0.915047180683412,-0.0153264233050158,-0.357022905357524
159.433656164382,112,3.31369479159789,-0.819223406164259,0.258115105475057,-0.706560868474587,-0.791208486417894,-0.368360575407801,-0.289221652977891
160.436383561643,111.969889041096,3.45178009449308,-0.912434950417739,0.76905115146488,-0.235911283869436,-1.29090183574541,0.78922138975081,-0.19551630342893
161.439110958903,111,3.53197823172594,-1.84655416499814,-0.25238177869251,-0.918963581821262,-0.411773551507989,-0.783792875158813,-0.168042579442169
162.441838356163,111,3.6121763689588,-0.43387029924887,0.0888014009612737,-0.0600262862553792,-0.789099743124217,-0.409708258441454,-0.20361363540972
163.444565753423,111,3.5805847655071,-0.573192844583387,-0.451030551842651,-0.197345000525102,-1.71885258086145,-0.559829641102502,-0.380878099423321
164.447293150684,111,3.41017625797959,-1.73882020322204,0.358266779266817,-0.525280070336392,-1.32192085445802,0.539077719364919,-0.265826156139318
165.450020547944,110.956252054795,3.34068602201821,-1.01956252053428,-0.0039642694821396,-0.479485510001294,-0.993325132784179,0.0159995612670444,-0.263625444556198
166.452747945204,110,3.39378712255245,-0.952324533806715,0.0352079086925147,-0.601738345166077,-0.949971366434415,-0.220326453275856,-0.276411490255759
167.455475342465,110,3.44688822308668,-0.941791141938991,0.515655974716234,-0.23892049431021,-1.00308597617082,0.0915309744958462,-0.550649499808969
168.458202739725,109.948069863015,3.4711649038612,-1.00466481342861,1.07252631573491,-0.600459209520838,-0.756513953541507,-0.156287825175117,-0.083771102305422
169.460930136986,109,3.46156011236531,-1.98332879452065,-0.243102280039819,-0.282270479474247,-0.415525386305385,-0.701388208171833,-0.167470938529857
170.463657534246,109,3.45195532086942,-0.430714731939511,0.0262675388216089,-0.0806840078467707,-0.947191761897476,-0.252761602760425,-0.185501323589948
171.466384931506,109,3.44235052937353,-0.660200385178235,-0.596636057836373,-0.158065514786213,-1.51954952050768,-0.55889421615542,-0.348124018624577
172.469112328766,109,3.43274573787764,-1.72172187877512,0.153591793984074,-0.476364975417428,-1.29817275684639,0.488379640822471,-0.461854008378603
173.471839726027,109,3.42314094638174,-1.00333628383854,-0.0786563509006144,-0.785501572577935,-0.923128228355877,-0.175397957478686,-0.48702020712293
174.474567123287,109,3.41353615488586,-0.958307766963327,0.0693444707561947,-0.546362734557684,-0.939151272716821,-0.204853195615743,-0.393493949542374
175.477294520547,109,3.40393136338997,-0.908109637868034,0.322537187734595,-0.540566068625881,-0.834521273119162,-0.247219963967743,-0.513892458422041
176.480021917807,109,3.39432657189408,-0.469438424459323,0.694546549416471,-0.00125201005447234,-0.805291629208473,-0.544937064112198,-0.00735282838776511
177.482749315067,109,3.38472178039819,-1.98342814063923,-0.915500380756426,-0.222233301700999,-0.544021272053793,-0.323216231520039,0.337149531362492
178.485476712328,109,3.37511698890229,-0.521555435836968,0.172723190482827,-0.00164814402137357,-0.698813428286169,-0.617975943222466,-0.197796150685477
179.488204109588,109,3.36551219740641,-0.670589708886151,-0.200117544400471,-0.182005961452272,-1.31443184930809,-0.356558869852933,-0.654243154088012
180.490931506848,109,3.35590740591052,-1.92563106335565,0.767201238304056,-1.1241560709162,-1.30358750272926,0.606791580944104,-0.0624617132861424
181.493658904108,109,3.34630261441463,-1.10704589041751,0.06188396356457,-0.265112038343485,-1.05120734429926,0.0738049254995371,-0.20460171086298
182.496386301369,109,3.33669782291873,-1.00169447781417,0.0308628291923785,-0.273337404854193,-0.914762614356834,-0.203326475341282,-0.476275192377563
183.499113698629,109,3.32731317238357,-0.960983054200746,0.37532627109649,-0.728883334243106,-0.981278308352467,0.174590466550961,-0.53351378056829
184.501841095889,109,3.31814824397262,-1.25984350703138,-0.0366303059334717,-0.246651317026535,-1.1107992759857,-0.244180563193169,0.563617844266442
185.504568493149,108.90170410959,3.27508580416451,-1.93185657260954,-0.251015046038884,-0.492864568012263,-0.617279660029041,-0.120466917002651,0.490611495670507
186.50729589041,108,3.19891863106857,-0.436207677608257,0.0595913134949918,-0.118796791239521,-0.831637731434759,-0.401487977810899,-0.257034688081453
187.51002328767,108.103750684931,3.12275145797269,-0.545593959267682,0.00482178340431229,-0.408949567605107,-1.29280716894187,-0.424799638144279,-0.280535666300446
188.51275068493,109,3.04658428487682,-1.90038718770188,0.53289760796689,-0.654348,-1.31156046301594,0.626730398591244,-0.275540961912478
189.51547808219,109,3.08498197917785,-1.10448164383761,0.133579265752119,-0.194532520549783,-0.97878378081572,0.209863015112973,-0.243889019177614
190.51820547945,109.111932876711,3.23049777906823,-0.958527995525114,0.0810401172615479,-0.179065993869282,-0.94450182940431,-0.173492769435768,-0.256149509364648
191.520932876711,110,3.27201988515074,-0.943753447805634,0.261732314665672,-0.548126595289062,-0.971441946052207,0.108400886673806,-0.725805859542907
192.523660273971,110,3.21840405121925,-1.71859590045286,0.0591479885249475,-0.366425482849481,-1.80083888489639,-0.00517320026063661,-1.23316447495095
193.526387671232,110,3.16478821728775,-1.98393,-1.27519973518907,0.0351976627081923,-0.867466759761179,0.0489929269795971,-0.0967606899588561
194.529115068492,110,3.2092202011299,-0.454669460392576,0.12161325252216,-0.253446966202642,-0.875837245888255,-0.41057607454441,-0.260677716893058
195.531842465753,110,3.34046217652041,-0.886081174980403,-0.0278329936497235,-0.515921271645708,-1.48981428035686,-0.677920289732582,-0.281643287104598
196.534569863013,110,3.40447125023744,-1.44747818903963,0.343111673676453,-0.297864083214999,-1.15922464031802,0.63902101645527,-0.266585903149959
197.537297260273,110,3.41024027519634,-1.1868559534257,0.222172486024301,-0.177227703016423,-1.09521735068589,0.362430045481399,-0.155091050133287
198.540024657533,110,3.41600930015524,-1.02926164137058,-0.062491208727383,-0.145324471900085,-0.938963485091813,-0.269015074155313,-0.523005783098112
199.542752054793,110,3.50256474109559,-0.872763694178528,-0.0216598355471193,-0.469245528090243,-0.866485825335541,-0.314073982189295,-0.258936491103864
200.545479452054,110.139206849314,3.65683936480118,-1.06333101272587,0.155101972084507,-0.310763030883282,-0.830117343565279,-0.432445519903448,-0.172428098047576
201.548206849314,111,3.76247916602182,-1.39023371820883,-0.179594440019659,-0.31909133244729,-0.687357887712831,-0.327685233903394,-0.139456726593175
202.550934246574,111,3.82823602327934,-1.68567878837989,0.166284546131015,-0.0930527438397281,-0.611479776280697,-0.74788353022868,-0.246480246371697
203.553661643834,111,3.89399288053686,-0.418292296053864,-0.00121771643479722,-0.15509023168422,-1.0623374739729,-0.190828752327471,-0.0792904974230159
204.556389041095,111,3.95974973779444,-1.63624945886464,0.458000592453403,-0.55140558221311,-1.2727090839098,-0.138879409258695,-0.323349814639923
205.559116438355,111,4.02550659505196,-1.23393088562026,0.163308781453655,-0.322822517581303,-1.09306294638017,0.196838432251099,-0.391352228659088
206.561843835615,111,3.78394587654872,-0.966080942552194,0.0894781674051718,-0.211569513917306,-0.914006876387521,-0.201092641609103,-0.279845639939604
207.564571232875,110.841701369864,3.30388010783649,-0.912463573609969,0.118775016986842,-0.726022958277212,-0.874540287672861,-0.0485182999202256,-0.614129763221877
208.567298630135,110,2.82381433912427,-1.14055292787215,0.469359255564499,-0.0595159413323004,-1.11190738282631,-0.226735678576872,0.441232649287448
209.570026027396,109.836246575343,2.64873404150678,-1.76924308494737,-0.38342114623246,-0.32427380767946,-0.68948046304041,0.0357659200226966,0.0150586804989648
210.572753424656,109,2.70261058456156,-0.620545941066858,0.196312700314472,-0.378012078294512,-1.3673917629975,-0.517706027707758,-0.358448684619343
211.575480821916,109,2.77387673980807,-1.12503874082401,-0.0398697733336665,-0.312593810774451,-1.0034254895974,-0.0429841169050372,-0.263717588078683
212.578208219176,109,2.85791030933545,-1.01738290269408,0.237636883589819,-0.507903495101566,-0.938471247684965,-0.20991738044595,-0.33956524895801
213.580935616437,109,3.00190066194496,-1.31857939506513,0.010813458988995,-0.0361355105744002,-1.11709328803867,-0.614553598512226,-0.173706028039756
214.583663013697,109,3.18893940335588,-1.68981553419305,-2.15897638356126,0.636154094577373,-1.16422351798807,0.821770477076683,-0.662853307595555
215.586390410957,109,3.3759781447668,-0.669600894827481,0.113316972310294,-0.180695409871188,-0.705803437189951,-0.708315633716963,-0.235689615292414
216.589117808217,109,3.57136782202701,-0.80100513757953,-0.420712008815552,-0.109370356541647,-1.42799260667895,-0.469966219998411,-0.868297608547575
217.591845205478,109,3.77255504701345,-1.15952311506826,0.0772234004646492,-0.253308129538114,-1.0693476810984,0.0528808331739936,-0.272918819500014
218.594572602738,109,3.49317659300088,-0.964866750026242,-0.00805458446877855,-0.349635949929741,-0.886755032508498,-0.0963548015015057,-0.334048365015202
219.597299999999,109.191027397259,2.88760612082293,-1.03784452383135,0.0918372244385735,-0.484128781087879,-0.959995407500998,-0.381553595904627,0.249282776299632
220.600027397259,110,2.28203564864498,-1.74721018767699,-0.595924328497453,-0.391095350895009,-0.826371662471743,-0.116288501876894,0.00204587030256187
221.602754794519,110,2.72593736810721,-0.476814013535424,0.137734439641713,-0.209858197274999,-0.89508362930082,-0.358526125773271,-0.268528021404673
222.60548219178,110,3.85837758147786,-1.57422889105299,0.216634376340837,-0.731248319189129,-1.16743919381852,0.223696054606933,-0.283595902448974
223.60820958904,110,4.15104010513282,-1.13019921897094,0.0847495838207269,-0.555578455000072,-1.14453826129035,0.192645080909577,-0.494339472075602
224.6109369863,110,3.90515797762602,-1.00020240890815,0.0612301802448575,-0.469877019849057,-0.907111393152041,-0.208161960615513,-0.239961497943194
225.61366438356,110,3.65927585011922,-0.893160322505079,0.225499458918529,-0.957928172072691,-0.845374053982272,-0.3711404227378,-0.621912994491662
226.616391780821,110,3.55738433358906,-1.53536632420553,-1.12132380302154,0.16508020229942,-1.1340258666515,0.681488891381513,-0.364464278628948
227.619119178081,110,3.54470985928769,-1.91570374317267,-0.266919643296427,-0.54485059324667,-0.458493598487703,-0.322909154535186,0.378667155336511
228.621846575341,110,3.53203538498632,-0.333150944050578,0.135540615806804,-0.346210950541241,-1.05148471109797,-0.26265452041002,-0.201722479539556
229.624573972601,110,3.4921046661645,-1.69256881279836,0.349149351606192,-0.406460328737073,-1.21311922374583,0.448904207766132,-0.37899113698448
230.627301369862,110,3.43586168645213,-1.18478588450974,0.139503473228279,-0.498138135734881,-1.05240736507228,0.021380158678669,-0.525108032954759
231.630028767122,110,3.40155636295894,-0.963062534794144,0.0575130849585302,-0.323158628769334,-0.884634165959552,-0.213157304177555,-0.33159311522331
232.632756164382,109.773516438358,3.38007794210963,-1.0225397599591,0.206574447838101,-0.351585788376202,-0.934965539374507,-0.0107125819154692,-0.430293154321589
233.635483561642,109.229210958903,3.47352216862983,-0.793780379153459,-0.0453441160824997,-0.719322815399257,-0.797505983726221,-0.341363188298425,-0.616509612391951
234.638210958902,110,3.63260487020514,-1.58321714808626,-0.643859486115433,0.16869701242099,-0.78675421502844,-0.734534071501603,-0.122585671521198
235.640938356163,110,3.79168757178059,-1.98212968310505,-0.256360298813219,-0.220890720822625,-0.475481876104886,-0.668974497440249,-0.375725739167758
236.643665753423,110,3.83405429410278,-0.491963567614167,0.175119845898123,-0.10612948215287,-0.797180162115225,-0.40036295360837,-0.387416610063676
237.646393150683,110,3.81207952319182,-0.369061541631183,0.371792606584528,-0.197065020271859,-1.35603673093843,-0.569992472741099,-0.310773497515939
238.649120547943,110,3.66730637712373,-1.62914403903849,0.132093622466731,-0.547306653495461,-1.37312031506876,0.394518879931487,-0.411164990594451
239.651847945204,110,3.45643280547975,-1.05434114726024,-0.0625848952444146,-0.708283604091456,-0.912012419007165,-0.234978360532616,-0.801670446532064
240.654575342464,110,3.47065036604545,-0.892528386647846,0.33598335699631,-0.775109829938018,-0.837973030822253,-0.141693365342791,-0.385286128904055
241.657302739724,110.251030136985,3.60315744916871,-0.925873503304964,0.0343694145369089,-0.250610273695886,-0.758371575339002,-0.39717084873733,-0.0280611288190616
242.660030136984,111,3.73566453229197,-0.629377273441426,1.3372788713126,-0.415996682224713,-0.585756373249304,-0.519872594996703,-0.276010032424922
243.662757534245,111,3.78974976194519,-1.24359605208022,0.226188670001512,-0.26262857958521,-0.707711044501203,-0.707008959486972,-0.29697302435268
244.665484931505,111,3.80409377736299,-0.225041536314494,0.209397606815306,-0.170771704122881,-1.22798991438551,-0.348915990411721,-0.129419363698532
245.668212328766,111,3.84019077693142,-1.97458957260333,0.467728427893226,-0.169881657333793,-1.2704168832133,0.469834778689102,-0.0422680651555992
246.670939726026,111,3.88704488578073,-1.35528158447326,0.115228602236366,-0.0859285246054339,-1.16282551876718,0.1516251776717,-0.3114324509596
247.673667123286,111,3.93389899463003,-0.99146022228264,0.0897332147064813,-0.338397965109339,-0.929167,-0.142252872342566,-0.20047938137406
248.676394520547,111,3.82194270674001,-0.90841688424045,0.237633406034726,-0.592159738369793,-0.957037608625963,-0.0547317616896289,-0.0927266202464728
249.679121917807,111,3.63431235616471,-0.932865964372943,0.128727791518054,-0.514228937024669,-0.65696559657948,-0.601129720516383,0.373581297193337
250.681849315067,111.275576712327,3.61517915371678,-1.54170542319468,-0.926966392992115,0.0834277644372697,-1.34589983860264,0.668963525080383,-0.554557493364828
251.684576712327,112,3.67435343985375,-1.1662901780799,0.264089959312513,-0.167781908082675,-0.44077466921339,-0.771600497291626,-0.30161764848956
252.687304109587,112,3.73352772599073,-0.192205196301914,0.0549722197666065,-0.219186386129982,-1.00281992876812,-0.291849055709605,-0.0897081277483663
253.690031506848,112,3.79311189447935,-1.22821785891039,-0.0271126693128367,-0.329704630954255,-1.38349812607421,-0.238212971769314,-0.466911389626315
254.692758904108,112,3.85287946099304,-1.24432983733034,0.0997231597620162,-0.21041756592214,-1.1091239183764,0.150458414796005,-0.55228174233719
255.695486301368,112,3.83441567364395,-1.03198901443279,0.017620455874801,-0.227041055337986,-0.897176330410229,-0.206613959658509,-0.629823914971632
256.698213698628,112,3.78183264893163,-0.94118252265016,0.213926623881388,-0.277026739730001,-0.94191445294692,-0.0735606266194232,-0.232337471164421
257.700941095889,112,3.75183972841099,-0.974242627397236,0.3776225063926,-0.503011304658146,-0.876373067779348,-0.250940068161619,-0.28694814918482
258.703668493149,111.702604109591,3.73144759557538,-1.42959958949528,0.0746373731399569,0.29916517809512,-0.921104378029773,-0.423668763086472,0.0701613007473776
259.706395890409,111,3.71105546273977,-1.9822273527418,-0.253949862701077,-0.447307444533104,-0.581077900925507,-0.349964747451854,0.335099421976618
260.709123287669,111,3.58551705165107,-0.459233880077129,0.110897034828756,-0.143615651238489,-0.844739587928021,-0.48390974604785,-0.46105534436444
261.71185068493,111,3.41701372617835,-0.337897770380501,-0.385568548440594,-0.284164951245584,-1.28656519449602,-0.501897303164713,-0.56515263903933
262.71457808219,111,3.44489788139707,-1.62043304019394,0.138948360251007,-0.846681081369863,-1.29829620685629,0.282486123505214,-0.18500382013554
263.71730547945,111,3.55092627638335,-0.935028188778476,-0.146515409318341,-0.45517263860902,-0.885803843607616,-0.298294885571138,-0.474260385485428
264.72003287671,111,3.57921698550229,-0.920987459351616,0.32344597182628,-0.461583348806226,-0.904654486105706,-0.148417129794579,-0.469131774070271
265.72276027397,110.683512328769,3.57739536406393,-1.31397580266057,0.0720198767861307,-0.661566192937836,-1.33458019729424,-0.342412710087057,-0.477718414824185
266.725487671231,110,3.57557374262557,-1.95151269725664,-1.66754092056541,0.176001205066711,-1.39872951309504,1.350038926116,-0.119353592131089
267.728215068491,110.321942465752,3.69262285791749,-0.608001184754104,0.215405652601492,-0.0836018607226017,-0.675427512067515,-0.656090585465634,-0.195921962478427
268.730942465751,111,3.85387145067088,-0.0581742648653996,0.439804575014693,-0.235566157266595,-1.32422293892345,-0.426950157792257,-0.675625437531262
269.733669863012,111,3.8816161294521,-1.74597110960752,0.491644674007391,-0.831197180893885,-1.31554419177264,0.550544763698531,-0.502500486331433
270.736397260272,111,3.86107692993154,-1.05557715357836,-0.0224528915138033,-0.267436723955859,-1.06621078630116,0.0851211482941585,-0.229370202534639
271.739124657533,111,3.840537730411,-0.936714758748114,0.0287387796842562,-0.584648412132418,-0.90636697595967,-0.16328388920955,-0.293439695536393
272.741852054793,111,3.63922270620946,-1.05570993286153,0.184433584391808,-0.43637385604748,-0.922440139841127,-0.0771966005652443,-0.652622447895358
273.744579452053,111,3.37523215751431,-1.23517693593225,0.242587273827808,0.207028123623293,-1.14842505685953,-0.212586549486547,0.210368759938635
274.747306849314,111,3.11124160881892,-1.97020476026906,-0.41167615183194,-0.422900548639234,-0.572275914737744,-0.273544581470969,0.161660780327464
275.750034246574,111,2.84725106012377,-0.413933283088315,0.153213334934526,-0.0499802821251756,-0.819556934917708,-0.387533640980419,-0.286582839490715
276.752761643834,111,3.18672438150574,-0.406638292840824,0.200729238573295,-0.709971280460746,-1.55017365032899,-0.715335282705319,-0.332464937665199
277.755489041094,111,3.7236849027385,-1.68969690960093,0.248975084067277,-0.543442143890268,-1.30099634064018,0.334269742006413,-0.199600783103568
278.758216438354,111,3.79223883652075,-1.06053562260428,0.0700382340439629,-0.244274724808385,-0.942141421266226,-0.093517702513082,-0.36982508437994
279.760943835615,111,3.71196048109603,-0.991049407530198,0.175192898008573,-0.534085793179934,-0.856890445204878,-0.165461018838968,-0.374788251712676
280.763671232875,111,3.63168212567139,-0.86150034335875,0.205585128766705,-0.382450143836294,-0.808615817537493,-0.242047062709019,-0.210884556434972
281.766398630135,110.639873972605,3.50779817012359,-1.41254941091595,0.176996496963996,-0.266561116240058,-1.53672867943302,1.08214313202261,-0.295739005479037
282.769126027395,110,3.37067018491129,-1.39341050943616,-0.00627652527732948,-0.566549004719297,-0.545879404109871,-0.731987375314861,-0.246536605781073
283.771853424656,110,3.32831990906852,-0.169952801163276,0.256464072323428,-0.104214860502803,-1.16913436369861,-0.229599722648061,-0.258617872830647
284.774580821916,110,3.31388564818496,-1.80468108211331,0.616442309550264,-0.755535834252469,-1.24408213698286,0.430653054449538,-0.0500743650746763
285.777308219176,110,3.49251150242872,-1.04675709753398,-0.0959871420271424,-0.314460123836146,-0.96840847109763,0.00181141896182834,-0.421117783016063
286.780035616436,110,3.72625394357935,-0.950958509527832,-0.00929082222983366,-0.269701972113742,-0.915207156004724,-0.213517702305694,-0.165271970593719
287.782763013697,110,3.9599963847302,-0.94140872842591,0.151028072466761,-0.313928722366125,-0.960286752880268,-0.0735349886835337,-0.587490596158481
288.785490410957,110,3.78026997870604,-1.4734485903999,0.0705684248600822,-0.994223458506876,-1.24415396589949,0.181343942209895,0.702159171314169
289.788217808217,109.618054794522,3.48802006513761,-1.79725898630583,-0.100455125026165,-0.669076614615751,-0.467685169863196,-0.342541504104471,0.147886805483671
290.790945205477,109.384672602738,3.53124894680791,-0.36566936170738,0.0554120884707664,-0.237394561099629,-0.946126819337135,-0.223526961926411,-0.168487625967078
291.793672602737,110,3.66284354799967,-1.66452587778506,0.469103013452649,-1.99348900996298,-1.18212799999879,0.409732784978879,-0.0948824700272569
292.796399999998,110,3.79443814919154,-1.03576155732342,-0.150409543247323,-0.716933009684723,-0.928446088403578,-0.114965701007861,-0.240728739176101
293.799127397258,110,3.73702221106871,-0.932199988760658,0.22207327014971,-0.45097064245837,-0.881984589039883,-0.147805915590329,-0.294085344648545
294.801854794518,110,3.63225725260298,-0.809251288693217,0.341693664149209,-0.841464066468816,-0.484413063681918,-0.562434346817942,-0.0781276784850779
295.804582191779,110,3.62473811620087,-0.787417479720532,0.967458059311938,-0.816813936070934,-0.501187566281395,-0.459338523475856,-0.0360726074303665
296.807309589039,110,3.64075835758443,-1.84642232337063,-0.130382258067759,-0.417676874033704,-0.561392105788567,-0.657502393822979,0.174630731973823
297.8100369863,110,3.656778598968,-0.296311050616661,0.00996066636124246,-0.397062248942384,-1.07440842374996,-0.282482527848504,-0.0626356983351703
298.81276438356,110,3.51094546830634,-1.51196113449419,0.393107070296489,-1.64014250908903,-1.52072034589437,-0.529694193550997,-0.700261456533994
299.81549178082,110,3.32795106073104,-1.48955092470829,0.0999753427304259,-0.246303128090409,-1.19852369007741,0.373251268499441,-0.500741756504264
300.81821917808,110,3.14495665315574,-1.02109473717395,0.123517325288082,-0.30423636407336,-0.912483304794856,-0.221841398338689,-0.468889924223821
301.820946575341,110,3.29487204624614,-0.940275521644186,0.319995441640502,-0.619461827942022,-0.902959968766283,-0.0888567639333228,-0.235363644564749
302.823673972601,110,3.51715665567075,-1.04076272761839,0.0810976936525476,-0.342432889450112,-1.05948524974083,-0.6231104295457,-1.11630728666659
303.826401369861,110,3.47700542772625,-1.75617868485813,-1.54379711459474,0.240398978841199,-1.81095244176665,1.83874437517986,-0.725273625611009
304.829128767121,110,3.38190676137011,-0.994826567367742,0.224533775119638,-0.192133261414412,-0.786437734155972,-0.472377472179962,-0.204214844178945
305.831856164382,110,3.28680809501388,-0.0865235666673063,0.28087053350347,-0.138491148134291,-1.32131949040778,-0.408346419172072,-0.306727435065191
306.834583561642,110,3.26263385343153,-1.88631835045927,0.60434615590363,-0.489390549996613,-1.22572367213666,0.486123786314788,-0.184033234571448
307.837310958902,110,3.2524712112603,-1.0444828256169,0.00882301694946021,-1.17689904517854,-1.0487660194523,0.156689728027472,-0.255082262028022
308.840038356162,110,3.30648096738339,-0.918579981894908,0.0639738269606946,-0.866029666000864,-0.902637580482461,-0.294356028626749,-0.243838135679485
309.842765753422,110,3.37267100287653,-0.921892908216231,0.308292031524405,-0.389463921926272,-0.907240630132708,-0.0280184715864862,-0.755370331440312
310.845493150683,110,3.43366992861631,-1.64759594872459,-0.148567972513348,-0.326641850712491,-1.51777966984014,0.162694604466521,-0.0400966666874978
311.848220547943,110,3.49372327243822,-1.98392461232904,-1.08356782499109,-0.174664250264351,-0.751456295274891,-0.0449125040180735,0.220230263147889
312.850947945203,110,3.55377661626012,-0.487683262816322,-0.0258309107614397,-0.165279726778623,-1.04356037060629,-0.226565597473412,-0.168057651108689
313.853675342463,110,3.57536891304106,-1.18730614243522,0.282232908931342,-0.545825588703392,-1.44288553789899,-0.287989991414136,-0.912888154208928
314.856402739724,110,3.59038976945202,-1.365073565072,0.0866607138361604,-0.246553676167092,-1.14902580137049,0.239401035275091,-0.174543139382881
315.859130136984,110,3.60541062586298,-0.950619702261797,-0.0178945426698561,-0.260309228012161,-0.916705929586695,-0.199216839728133,-0.303403824637097
316.861857534244,110,3.43146347671968,-0.827348637708882,0.387078742738755,-0.893587979106977,-0.849213868528166,-0.0727264017502968,-0.278963211814478
317.864584931504,110,3.22732321954849,-1.43165276576886,0.0980081670458128,-0.757695906047969,-1.52499100282497,-0.260191722800957,-0.90017290532362
318.867312328765,110,3.22436079815976,-1.981856506621,-1.22032371154329,-0.109930325530428,-0.748606116431744,0.0879699076309456,0.206303348855609
319.870039726025,110,3.25207952584469,-0.487097191778648,7.32949235642578e-05,-0.14885623972467,-0.967727778990817,-0.326231944979842,-0.388386353873124
320.872767123285,110,3.27979825352961,-1.37822838543185,0.0168476361311613,-0.884496439733685,-1.17189041779221,-0.244205458071022,-0.345072540984661
321.875494520546,110,3.20001969106874,-1.26925635341996,0.168889842617673,-0.0744836789828402,-1.09234647671134,0.0720791004652399,-0.327557267936071
322.878221917806,110,3.10500124290438,-0.920155239212241,-0.0212112550097315,-0.525122886430327,-0.950754170275895,-0.175652172328376,-0.180723639585763
323.880949315067,110.474676712327,3.31722835084877,-0.835818035848159,0.193208301129763,-1.13349139814049,-0.9114002446614,0.0852952194735543,-0.501686856328887
324.883676712327,111,3.57084819143776,-1.31162837682801,0.341867880648637,-0.714624635851776,-1.66344497965277,0.358571466393374,-0.144271725198036
325.886404109587,111,3.82446803202675,-1.98289,-1.15365356275481,0.200763791819964,-0.493360792877094,-0.392849193329236,0.318099210510634
326.889131506847,111,3.54006507012426,-0.424311650585722,0.0272775281801587,-0.13967098362384,-0.952391755123063,-0.440387640456008,-0.170512776509215
327.891858904108,111,3.18877958104183,-0.453166437518997,-0.310896832095875,-0.204910126648627,-1.41541214179007,-0.637173069445931,-0.665871836406709
328.894586301368,111,3.30186589518226,-1.54341290308724,0.163836278285775,-0.57010175702021,-1.24675567991966,0.268839733516925,-0.246405835980059
329.897313698628,111,3.46950520388086,-0.991606232875405,-0.0163635282175161,-0.661851931509482,-0.893616940639649,-0.194375310500911,-0.317125136988275
330.900041095888,111,3.63714451257945,-0.94801016053831,0.257289105415172,-0.297706997668587,-0.915834438569442,-0.027300181660276,-0.335292228875343
331.902768493149,111,3.48055894443874,-1.30506469866241,0.142728370510994,-0.0264037074644245,-1.31654888874708,-0.54575452310126,-0.501459214810744
332.905495890409,111,3.28915833884974,-1.98214738972621,-2.04076117115761,0.434866629824314,-1.21337490301421,0.835219278995988,-0.568425397899272
333.908223287669,111,3.48546441777111,-0.710127644395731,0.232815202008492,-0.16921160091282,-0.61260458703249,-0.653201906118213,-0.280304286392417
334.910950684929,111,3.72083127730531,-0.487466254120331,0.13262312268214,-0.228968715923022,-1.34685649313741,-0.546180686071916,-0.279475604566817
335.913678082189,111,3.9561981368395,-1.5667416584462,0.0039096469380414,-0.429524058722574,-1.27557753563567,0.209560272738925,-0.261473249177923
336.91640547945,111.51013287671,3.58066639364478,-0.994482740279332,-0.116655345713077,-0.386325314381861,-0.890775977630696,-0.274419999677654,-0.522125553828174
337.91913287671,112,3.14957383101473,-0.971688935340546,0.156530257815544,-0.24041043671079,-0.881922089043126,-0.171794090148077,-0.157229231791994
338.92186027397,112,2.94743074949363,-0.985155967275645,-0.00836382874428047,-0.341998405740925,-0.677579928450805,-0.506653484372708,0.207748645182717
339.92458767123,112.518315068491,2.76463688739778,-1.98317742465756,-1.67116033937129,-0.0540112137971526,-0.972348856622385,0.117663971826949,-0.393775881556656
340.92731506849,113,2.58184302530193,-0.636650766578345,0.192864689096893,-0.0959063760980488,-0.846013979757782,-0.440922442433587,-0.363949593222861
341.930042465751,113,2.84702432684861,-0.314075168942837,0.149922369334497,-0.300135261090703,-1.3713530426542,-0.519467260886299,-0.279109820044563
342.932769863011,113,3.14580366698554,-1.34680097671127,0.0482461142670892,-0.225878237254597,-1.17094654657011,0.206827276437057,-0.293459084521736
343.935497260271,113,3.44458300712246,-0.971407648487322,0.203156331593019,-0.286560391149996,-0.886013192147172,-0.171869778542544,-0.181811258264597
344.938224657531,113,3.44535342198636,-0.995077524627106,0.175773432202431,-0.439244651374362,-0.968096652059595,0.0898707183256735,-0.401866461278227
345.940952054792,113,3.42655896813703,-1.59918764382386,-1.01171053837082,0.177998150134958,-1.57761788218352,1.35525110600832,-0.622156630130051
346.943679452052,113,3.40776451428772,-1.16952304244458,0.0584330125570186,-0.21407910549602,-0.573897152071757,-0.771003503819545,-0.443045123376104
347.946406849313,113,3.37788100865762,-0.448776252830784,0.0409446464929881,-0.325671236768217,-1.1824137287521,-0.345939154082314,-0.325982580565253
348.949134246573,112.457138356167,3.34737135638365,-1.37817567366979,0.135939880036818,-0.132113718645805,-1.21772370213707,0.211580081018342,-0.287240512007409
349.951861643834,112,3.31686170410966,-0.965918676710828,0.0107375529866117,-0.313552893155142,-0.904620213698373,-0.210155299545064,-0.356531382646762
350.954589041094,112,3.4889425475749,-1.01315196624981,0.158757110422357,-0.43388988423161,-0.827067709397362,-0.238524038945375,-0.397720003233285
351.957316438354,112,3.67063340953376,-0.856862664648615,0.127906480668958,-0.303724274052618,-0.591994434919744,-0.224379269807915,-0.324149279517325
352.960043835614,112,3.85232427149263,-1.41080140001061,-2.04363149593333,0.460264106951155,-1.51518912646769,1.36277527803768,-0.546750471678156
353.962771232874,112.556498630134,3.78540889117832,-0.770287076274846,0.16900976591747,-0.245141199342457,-0.564390363007993,-0.716848543019631,-0.114421030297408
354.965498630135,113,3.70890747561662,-0.216405071921554,0.499534546227773,-0.276124133561842,-1.334506568203,-0.556257166381851,-0.527133613854371
355.968226027395,113,3.632406060055,-1.8161934558197,0.427391761984037,-1.22851294739091,-1.34957338355506,0.422345421663332,-0.3116673088357
356.970953424655,113.564680821915,3.68374569080806,-1.00115551410993,0.0935375623127879,-0.193322505895593,-0.911912998561927,-0.190929770342434,-0.279722407940705
357.973680821915,114,3.73889904008202,-0.919067078900304,0.375697232331053,-0.350208691691677,-0.882358881643496,-0.117918144107767,-0.331163449865347
358.976408219176,114,3.79405238935603,-1.43549848485526,-0.0600530700766017,0.0241833646798242,-1.45869462938595,-0.471064915779825,-0.717676256115043
359.979135616436,114.572863013696,3.50425926109665,-1.70712770683525,-1.63591227260622,0.249619540688766,-1.6352197637582,1.39578021374206,-0.340450322955746
360.981863013696,115,3.20713609237754,-1.9838466753425,-1.13355296553413,-0.19747825165238,-0.756608402602881,0.0710967064384899,-0.132204189315456
361.984590410956,115.578317808217,3.36482580860225,-0.572392182474675,0.199082183561709,-0.0504454775917431,-0.593722112431689,-0.722405159569417,-0.250069129426856
362.987317808217,116,3.52961402906811,-0.264669467732927,0.0764425455284008,-0.0354654112795836,-0.928387177122091,-0.319796891641472,-0.157964624903966
363.990045205477,116.583772602738,3.47449319030151,-0.105828941877509,0.038200129948301,-0.113606630407019,-1.40737880135935,-0.741993200411092,-0.337312846701199
364.992772602737,117.586499999998,3.41716726500016,-1.19796614987906,-0.0977004750082848,0.935433075025308,-1.07359375001804,0.32677001665857,0.311632166647668
365.995499999997,118.589227397258,3.43701929091775,-1.0327533490542,0.490256840846537,-0.758437702499163,-0.646302489170515,1.32452530274601,0.153955054580604
366.998227397257,119.591954794518,3.45748382221824,-1.53462367191384,0.0200072565011273,-1.51667197520974,-2.01731784796047,-0.346775810014348,-0.345608541639665
368.000954794518,120,3.75555456832803,-0.706068926403022,0.831304950176721,-0.505332189682726,-1.4294000317184,-0.665626948769394,-0.439157059832238
369.003682191778,120.597409589039,4.05386725505846,-0.233441077094427,0.245530982166214,-0.424754143497667,-0.960725943153659,-0.572911640925732,-0.0255046800754144
370.006409589038,121.600136986299,4.3897876179899,-0.388114631515715,0.233403038351338,-0.264172472609136,-0.747009652071176,-0.569752024669035,-0.216836674526
371.009136986298,122.602864383559,4.72570798092133,-0.517356212546214,0.27248192750049,-0.244018907441078,-0.595343026862202,-0.534926958350583,-0.0236711398088961
372.011864383559,123.60559178082,5.05300983011021,-0.804909639922797,0.274364124202556,-0.231010822206053,-0.498029371531689,-0.662308655734837,-0.251363031445709
373.01459178082,124,4.79667761191163,-1.53676891540368,0.231759852568705,-0.298751170071641,-0.208044141512369,-1.29163485695844,-0.380378180491316
374.01731917808,124.61104657534,4.54285298641133,-1.95753121653661,0.148428003733663,-0.37715003349977,-0.103186165383561,-1.04982440356165,-0.404584576739746
375.02004657534,125,4.41195026712369,-1.98506135958921,-0.232899791968755,-0.229376773656778,-0.192183795599844,-1.11333505160188,0.00842083795931261
376.022773972601,125.616501369861,4.28104754783593,-1.98347405274016,-1.27107318706786,-0.642559311651943,-0.45713933987946,-0.0776935139474279,0.436900522741527
377.025501369861,126,4.15593125532857,-1.98314059726036,-0.189944770800278,-0.396922300959747,-0.186985731772074,-1.29224121434357,-0.251782018714333
378.028228767121,126,4.23057094035596,-1.98367341917794,-1.77366108911088,-0.469595904669561,-1.47230157918638,1.02364480137901,-0.732876946334636
379.030956164381,126,4.30521062538334,-1.84110786777282,-1.92188795114062,-0.199032941627238,-1.64138823827906,0.83704806950981,0.171461694310895
380.033683561641,126,4.38781496493056,-1.3533394475288,0.324472312741244,-1.06784767566378,-0.749288625595972,-1.00624788464776,-0.413933828743625
381.036410958902,126.630138356162,4.68179458325953,-1.9772342593609,-1.02358869782329,0.44356070028924,-1.28209646404175,-0.283822993969727,-0.857183255067316
382.039138356162,127,4.97577420158824,-1.93935529862864,-0.496751583280006,-0.375529892899757,-1.72969892881889,0.800227051178337,-0.0753583405774053
383.041865753422,127,5.22257649615294,-1.8259237311377,-0.507414955803496,-0.161002390673976,-1.62874349593927,-0.0073617155713277,-1.33704128792332
384.044593150682,127,4.45572066455037,-0.742279381309781,-0.555515846891627,-0.96660187498014,-0.203315396748842,-1.32910459857473,-0.832859005293483
385.047320547942,127,3.74056469399453,-0.678889941319212,-0.618637947490543,-0.529126311639596,-0.33452872946085,-0.160801833216895,-0.924824139394284
386.050047945203,127,4.00953294861115,-1.00916746849465,0.213806158087951,-0.28537609191715,-1.08516397643973,-0.779233465235649,-1.034671170487
387.052775342463,127,4.27850120322753,-1.17323932544491,0.167646877866203,-0.0769582449229072,-0.320744165433926,-0.52897761138163,-1.15349682551391
388.055502739723,127,4.53283176010954,-0.940574322197856,-0.134994717795668,-0.472458745663609,-0.781833522168961,-0.22424083696785,-0.423662677550585
389.058230136983,127,4.54973774402734,-0.874684150126099,0.0875044779249699,-0.350350805352494,-0.892003184364494,-0.162495463804906,-0.382622443982957
390.060957534244,127,4.55964602767148,-1.08731580274803,0.085104927400864,-0.201116860801943,-0.999714624637252,-0.0630531071260722,-0.335031383541318
391.063684931504,127,4.46637232517835,-1.04509929007074,-0.00376497698590728,-0.256430598043374,-0.928580367337623,-0.0688686484484298,-0.679406341851706
392.066412328764,127,4.38398259835597,-1.04672859411301,-0.151803926576349,-0.170826343556741,-0.863918038636036,-0.16966432528078,-0.253471636039894
393.069139726024,127,4.44855824273951,-1.16327214575507,0.232626741479685,-0.115325308852075,-1.04391502945162,0.0592995434301366,-0.0993242184294548
394.071867123285,127,4.51313388712312,-1.21593437261822,0.357205953429339,-0.126583429597063,-1.15309079041206,0.487190269722177,-0.0383732765083592
395.074594520545,127,4.57159066154114,-1.50423370550277,0.40443516011581,-0.416237195580922,-1.52754898972433,0.458476106849352,-0.314074905818183
396.077321917805,127,4.55681547334251,-1.6988974977096,0.492035466382391,-0.510452286107225,-1.45390596073665,0.512424129329538,-0.391743434527809
397.080049315065,127,4.55504878344703,-1.82394597811654,0.423540982963113,-0.415454735557012,-1.37125756779541,0.782013923442194,-0.366648662732341
398.082776712326,127,4.69785387694028,-1.92832576076817,0.85179673083106,-1.2945342872763,-1.55992901372064,0.746640000558478,-0.309249469035165
399.085504109587,127,4.8406589704334,-1.97771,1.36682685754382,-0.917164666936886,-1.43926491438375,0.920139835260384,-0.330465563397266
400.088231506847,127,4.97368219178072,-1.97639732879329,0.640712307729928,-0.573834823295175,-1.29425726713423,0.91160701372164,-0.335171285337961
401.090958904107,127,5.00865230976016,-1.94235672598769,0.330812306575735,-0.823297518860361,-1.20554437526684,0.395351671617991,-0.495248184352916
402.093686301367,126.312586301373,5.00375488128895,-1.71197626485898,0.545884079256158,-0.83026292201249,-1.03934369862391,0.154279654143511,-0.702492948788605
403.096413698628,126,4.62409220686403,-1.44570206089232,0.343407217668845,-0.552516183378267,-1.78263637442313,-0.450027666846778,-0.486528167623076
404.099141095888,126,4.29341571386272,-1.43833175048349,0.727480687576918,-1.00054775863654,-2.02177967671212,-0.61111155234023,-0.665248511432022
405.101868493148,126,4.3959412478079,-1.08201947945912,-0.185129232854964,-0.389711097039412,-2.00422417807339,-0.644737277403533,-0.520533780840128
406.104595890408,126,4.49846678175308,-0.289107452267318,0.868290685479153,-0.327543863011277,-1.83624877259729,-0.790262264108774,-1.25375553203859
407.107323287669,126,4.618904532013,-0.0580214885939234,0.098925093375702,-0.268632785821852,-1.68763148264141,-0.775359141894597,-0.761758307132675
408.110050684929,126,4.88463731956089,-0.147092953011418,0.463364645712677,-0.584801732517905,-1.27461544109553,-0.53086288538842,-0.254130585223119
409.112778082189,126,5.15037010710877,0.00789023262503828,0.281376406584465,-0.215372781982287,-1.13793157602431,-0.502522442262937,-0.313817052951776
410.115505479449,126,5.32981949705632,-0.230465123285743,0.26768202191793,-0.289366208769145,-0.747301989029335,-0.763144479454315,-0.0243229053930918
411.118232876709,126,4.86378689826875,-0.562045819560601,0.36486319780574,0.0553851424624082,-0.578382253190846,-0.495413518832828,-0.0407871871950706
412.12096027397,126,4.44170485813729,-0.719008170505104,0.193279291771084,-0.373799883730495,-0.623678700912933,-0.525906056159402,-0.102551324539977
413.12368767123,126,4.33197639905512,-0.832580033788108,0.306063176574803,-0.220176384005013,-0.344396227737632,-0.837350292304839,-0.577591149127932
414.12641506849,126,4.25848617681223,-1.53506233156873,0.199919196712718,-0.361475649040273,-0.159843135351026,-1.12064943065491,-0.498615943576471
415.12914246575,126,4.43012971025055,-1.8217829589247,0.504033551495582,-0.0913069187883812,-0.099020547940802,-1.09809677822863,-0.994683835637689
416.131869863011,126,4.60177324368903,-1.98497,0.106030628150095,-0.407202914695691,-0.107193295247087,-1.32559613562074,-0.353782242996538
417.134597260271,126,4.74932199298203,-1.98469079589004,-0.932449032346779,-0.603966805483363,-0.592786652230271,-0.510852035945337,0.494686478674052
418.137324657531,126,4.74502843960789,-1.98426393972595,-1.27268866745155,-0.627816358911968,-0.490688043322377,-0.445875689796744,0.389007134272066
419.140052054791,126,4.74073488623375,-1.98503109452057,-1.37798980138873,-0.746135651660478,-0.568025815437578,-0.272499745471591,0.490145455206355
420.142779452052,126,4.7364413328596,-1.97345175616218,-2.16062579452044,0.469646265745814,-1.12366272639442,0.723000178810773,0.282825637662072
421.145506849312,126,4.73214777948546,-1.93285898219286,-2.15931487260278,0.253929622058386,-1.97299753332478,1.83167569311427,-0.842436603429097
422.148234246572,126,4.72785422611131,-1.83441327852205,-1.89705473791446,-0.0497997394942979,-1.79080316330477,1.3511619720396,0.455228517928068
423.150961643832,126,4.72356067273717,-1.31876459403303,0.580375174063848,-0.733925822579536,-1.14855302415932,0.154443937188037,-0.029704434189592
424.153689041093,126,4.71926711936303,-0.807408738595181,1.97024905719187,-0.870008109072361,-1.25686015980158,-0.207269731593452,-0.152311746941562
425.156416438354,126,4.71497356598888,-0.940705380435989,1.19627045377343,-0.0402838103334104,-0.801147613699588,-1.27006888219201,-0.269358881916406
426.159143835614,126,4.71068001261474,-1.63847805046596,0.00608500382299221,0.0698070739056321,-1.11833720735602,0.0411280875805043,0.421096077908276
427.161871232874,126,4.7063864592406,-1.1961680747171,-0.332911291761596,-0.640396856744182,-0.601762414389429,-0.157849861944892,1.24226629550904
428.164598630134,126,4.70209290586645,-1.82540226110159,-0.331393638747952,-0.271321072884144,-1.87866747698527,1.80846252482865,-1.42849774194148
429.167326027395,126,4.69779935249231,-1.64656454054032,-0.40784156115201,-0.237268166369888,-0.890820022476982,-1.13150803975532,-1.08854825518472
430.170053424655,126,4.69350579911816,-1.40606594522093,-0.62309649314472,0.0229242849269601,-0.46269236301809,-0.973047925254192,-0.761858472630927
431.172780821915,126,4.68921224574402,-0.866855025037941,-0.520871748565866,-1.09797492253054,-0.354696436215061,-0.745621482195042,-1.19415641897256
432.175508219175,126,4.68491869236988,-1.09754522246629,0.152193604805414,-0.167397079814022,-1.05251322874917,-0.269892509030254,-1.27758682670332
433.178235616435,126,4.6887561465067,-1.15186222799747,0.144178053914485,-0.396995747863689,-1.31844948628235,-0.711886949783863,-0.791344892851813
434.180963013696,125.225309589044,4.72951701520536,-1.0040320276833,0.0766173179276413,-0.119457882759869,-0.992109141237963,-0.447511632618987,-0.726267211520599
435.183690410956,125,4.73475503845938,-1.03348901319616,-0.132929804199748,-0.794357524273145,-0.941100218771845,-0.375284023840687,-0.349973792603519
436.186417808216,125,4.58444118797311,-0.911665063205341,0.109626916147377,-0.108216057421606,-0.978170512784785,-0.561012800850024,-1.2053154626228
437.189145205476,125,4.49468712772543,-0.963862350330801,0.236570676865163,-0.254767283155448,-0.963780185471546,-0.564702746590634,-0.675126634223481
438.191872602737,125,4.66085911199952,-1.16233353333417,0.208728546666602,-0.228267943998795,-1.0244900457084,-0.418623765709013,-0.86636749714643
439.194599999997,125,4.82703109627345,-0.949033654514609,0.150717222477271,-0.659679623776005,-0.835564440206959,-0.351982698291166,-0.345216662944011
440.197327397257,125,4.94108080438388,-1.08553159246662,-0.0270041212238029,-0.350947757175718,-0.989873304089523,-0.40938023698733,-0.271314589016514
441.200054794517,125.793782191778,4.84600219257568,-1.09356942713155,0.0321760616932871,-0.492660504260431,-1.0579974449446,-0.47265646210451,-0.245782384709195
442.202782191777,126,4.74874586415565,-1.06672484411086,-0.273064127913816,-0.190753288005199,-0.995567586851344,-0.432433060825048,-0.417101823010619
443.205509589038,126,4.64304168436106,-0.971194765580363,-0.0487600739494914,-0.196475373621474,-0.948747359682718,-0.321050280619862,-1.11646261825329
444.208236986298,125.198035616441,4.53733750456656,-1.01813651020574,-0.111577952826468,-0.339532695346509,-1.00203919602855,-0.244576742866521,-0.258014024655217
445.210964383558,125,4.50846549225938,-1.06783400547901,-0.0874752142162338,-0.542523126024391,-0.895557797258223,-0.353185668320797,-0.423164464036684
446.213691780818,125,4.76328860572508,-1.00597281260707,0.0361409734735554,-0.522776930411695,-0.825780013698956,-0.322006718902958,-0.441727137533207
447.216419178079,125,4.94843917898193,-0.956983002166068,-0.140987062292733,-0.626400955802586,-0.843938620350647,-0.312189923984893,-0.49010864589564
448.219146575339,125,4.88446851346139,-0.92149923910631,-0.253135799222938,-0.833387358767903,-0.824675176240851,-0.278877481303796,-0.579805499431199
449.221873972599,125,4.82049784794086,-0.956163150799372,0.0274386305284983,-0.730678407790849,-0.928439997144209,-0.147073384958588,-0.366926317528742
450.22460136986,125,4.79421980753387,-0.942363319313695,-0.0123575054527846,-0.663719290404337,-0.86450381342341,-0.280883708194863,-0.973739743018184
451.227328767121,125,4.89650802932846,-0.998327384924567,-0.15210942692863,-0.635946846766595,-0.82244831255551,-0.399648688681503,-0.412271056199771
452.230056164381,125,4.90451483494617,-0.991331604207164,0.0195152694446863,-0.672899702766063,-0.980686694070012,-0.53002386442389,-0.355634190506245
453.232783561641,125,4.60068091312089,-0.919669347944849,0.0111081901906419,-0.505584450818746,-0.797953981150217,-0.204012678698126,-0.348429517958875
454.235510958901,125,4.29684699129562,-0.958154288879969,0.0958868292583346,-0.499516555400833,-0.960476835617958,-0.181093623553103,-0.270718076158453
455.238238356161,125,3.99301306947034,-0.968252859593596,-0.0763150856461061,-0.311703191791071,-0.930730983561786,-0.184603567544665,-0.346840389029915
456.240965753422,125,3.83828544189857,-0.864894332328747,-0.00214161326032692,-0.472408716438364,-0.937986113135937,-0.0702372332203196,-0.395869494899513
457.243693150682,125,4.147981140967,-1.00390681675447,0.108024431393791,-0.467976283618292,-0.999744985337738,-0.14975827621843,-0.271486930150839
458.246420547942,125,4.45767684003543,-0.909854846766624,0.124150654598159,-0.780986912129386,-0.873211588309613,-0.120632109175017,-1.32301567177432
459.249147945202,125,4.7326607585747,-0.956196110135896,0.213901292560267,-0.236953600175805,-1.0827148416448,-0.0331571636689552,-0.188893356028296
460.251875342463,124.154397260277,4.90416725260221,-0.959280645663255,0.275831280591792,-0.371284849136624,-1.0110481479438,-0.0273422702782618,-0.262219402056475
461.254602739723,124,5.07567374662957,-0.943955152328702,0.199742963616599,-1.02384292287788,-0.957859575813728,0.0135819614304173,-0.517754927482794
462.257330136983,124,5.24550026898572,-1.0324711972551,0.0889160910190236,-0.765655060805523,-0.911029433967769,-0.120991961596327,-0.465298640825938
463.260057534243,124,5.41052914402678,-0.885156525825207,0.149890272564795,-0.494467988972714,-0.79454004249242,-0.0967514042039388,-0.324317440026815
464.262784931504,124,5.57555801906799,-0.923771927390716,-0.107099862182926,-0.624551492578582,-0.820978704409516,-0.130448156343851,-0.53654961830958
465.265512328764,124,5.63933846832261,-1.11275984702887,-0.0701863541745793,-0.037064459105321,-0.832777183218866,-0.0638300841438649,-0.411473050001371
466.268239726024,124.861967123285,5.42588287363087,-0.84075285260135,0.0976026150932513,-0.846133601901368,-0.866710664379355,-0.208366296424839,-0.364395301368485
467.270967123284,125,5.25146387224683,-1.14804300616326,-0.127900172244401,-0.255438754296604,-1.04445417203773,0.012592593663195,-0.446236000337711
468.273694520544,125,5.18102561501397,-1.29517175753603,0.175036306877808,0.154884775723889,-1.12867199131939,-0.155378350466532,-0.253972218314567
469.276421917805,125,5.11058735778105,-1.26677412910802,0.250274605612437,-0.0910608788739015,-1.03087027616743,0.0652950261198591,-0.185329508868434
470.279149315065,125.872876712326,5.18949489945049,-1.4154677534279,0.341120323279257,-0.112705048966481,-1.27261131507494,0.209478774425142,-0.167690421923111
471.281876712325,126,5.65032835668327,-1.51690121368918,0.312089558880581,-0.301247233052546,-1.1845425684933,0.349925052945328,-0.0826058879878439
472.284604109585,126,5.93952050721514,-1.68862942054715,0.333590413287535,-0.4733727946584,-1.35885496163856,0.398897239553763,-0.41448099823419
473.287331506846,126,5.80136138399587,-1.62113242511665,0.5617283613185,-0.237280420727191,-1.44430806076571,0.532595014575231,-0.409375373974553
474.290058904106,126,5.66320226077672,-1.82553903630671,0.523084684387697,-0.842808074108174,-1.50685832329946,0.499909627357381,-0.461994540798385
475.292786301367,126,5.5218658727745,-1.81324668835308,0.542577429097881,-0.691280390391401,-1.66766950682363,1.01240358080855,-0.181269922614665
476.295513698627,126.889241095887,5.37292575882248,-1.97771,1.07775243451717,-0.682798898082801,-1.53460983425465,1.02692179475611,-0.468497679278347
477.298241095887,127,5.315350650335,-1.92577415068412,1.2003672642128,-1.26536707521009,-1.32547096443545,0.957738446940812,-0.110467829087719
478.300968493148,127,5.47080849236935,-1.95383044384903,1.01223908936528,-0.496915753819123,-1.43543280004359,1.10650437380571,-0.101506175717302
479.303695890408,127,5.49682854134341,-1.33684431080847,1.00831991065907,-0.946517329960721,-1.33741045177668,0.153995622681522,-0.94121077451395
480.306423287668,127,5.22871928986401,-1.41352263693791,0.648463979466048,-0.933022208897615,-0.984952756848704,-0.0704088818667467,-0.663570592475163
481.309150684928,127,5.02898307034266,-1.02440664650831,0.253478548685118,-0.697442171254978,-2.00657671984812,-0.79125985460627,-0.733115068491728
482.311878082189,126.094394520551,4.98070174616454,-0.732224090161046,0.630200486274415,-0.809772546611384,-1.96642067210768,-0.800399583018147,-0.911959463938959
483.314605479449,126,4.86239774941189,-0.839808882413078,0.304524309330998,-0.60684195400408,-1.63569280324241,-0.370155688772958,-2.52520334920303
484.317332876709,126,4.59285459775441,-0.180468334539131,0.441830500867152,-0.300211013730884,-1.72199608081702,-0.842294112191106,-0.698930224570788
485.320060273969,126,4.48799771595796,-0.0945610219542659,0.351286449597797,-0.370166287696508,-1.30214977397961,-0.624420234246961,-0.114866028781266
486.32278767123,126,4.73004608238279,-0.0426739382445105,0.262230755251501,-0.344252752874813,-1.10981678903155,-0.521481529327383,-0.116589156754546
487.32551506849,126,4.95887612471164,-0.128849280429482,0.386641921137176,-0.315638721780698,-0.920888298365212,-0.655439028276665,-0.040419330953031
488.32824246575,126,5.16054465884858,-0.18923006722573,0.239638115277824,-0.409668597609173,-0.92575347740051,-0.634717074582614,-0.156504636141428
489.33096986301,126,5.26794705393182,0.0197947326753268,0.294457208097748,-0.304111986986808,-1.10198009669393,-0.628405184232716,-0.0633667450808109
490.33369726027,126,5.18635512561677,-0.0736800020407287,0.328349584930802,-0.326065831513343,-1.01009384384782,-0.604744578076321,0.12920180932691
491.336424657531,126,5.06138112746646,-0.237567481785427,0.361173287673976,-0.141328329324364,-0.981815236375655,-0.688680197293996,0.0947665130848479
492.339152054791,126,4.85152699534322,-0.204079724129525,0.324668506297346,-0.170914159171192,-0.944327654776812,-0.580340949430142,-0.0324564806474844
493.341879452051,126,4.64167286321997,-0.244413499015242,0.214614433321455,-0.238924052532725,-1.00211055202018,-0.580742150000353,0.0127901636722898
494.344606849311,126,4.50433864843836,-0.22510894633381,0.351440287654794,-0.191837243817018,-1.01566251505752,-0.704278034519598,0.0115863362878451
495.347334246572,125.058938356167,4.50384396958904,-0.319434345900652,0.254864556844914,-0.131884839518497,-0.881539353345614,-0.676191942729248,0.0859006370060956
496.350061643831,125,4.50334929073973,-0.344526988160103,0.322595214913632,-0.379113181607882,-0.816801234188133,-0.498809830078034,-0.179461320167414
497.352789041092,125,4.49987745798291,-0.50359676158034,0.183919326781822,-0.323999153523371,-0.730527766266713,-0.536545058079869,-0.212549033902362
498.355516438353,125,4.4909857727877,-0.54291523012305,0.232926724935725,-0.232970073435688,-0.573306268596024,-0.52408275884677,-0.187873817425777
499.358243835612,125,4.4820940875925,-0.620008314348305,0.239749774546993,-0.180759534691036,-0.67742734457468,-0.580241722205556,-0.300361886216171
500.360971232873,125,4.47320240239729,-1.01316792022061,0.344967190756252,-0.190166832882654,-0.226404693830605,-0.830385950351599,-0.405062745549023
501.363698630133,125,4.54559530821363,-1.00155980280074,0.389746786299,-0.137876066163355,-0.170160306969125,-0.822476593782626,-0.399112428752235
502.366426027394,125,4.75913947715899,-1.49916400206585,0.19302461178032,-0.763627527262523,-0.134769081641542,-1.08320629863576,-0.369836670000711
503.369153424655,125,4.97268364610434,-1.32197575420153,0.36336597917828,-0.215652583013427,-0.0664921158144316,-1.16248468100463,-0.531226597779685
504.371880821914,125,5.41388347331151,-1.77489732566439,0.304649513475819,-0.502190916372012,-0.133983527944963,-1.12125258835534,-0.517025861506544
505.374608219175,125,6.23680179369565,-1.21093347646375,0.277499137415249,-0.285441887835168,-0.134695462673671,-1.0691241421215,-0.0302312746306173
506.377335616434,125,6.43369932107243,-1.49382047122467,0.334799048767681,-0.49402652163945,-0.1003247716912,-1.26691872693028,-0.330199095889057
507.380063013695,125,5.60497520905815,-1.69780674379191,0.214944446804386,-0.409711475292295,-0.152526414234278,-1.39453610540121,-0.480840301668082
508.382790410956,125,4.77625109704388,-1.10796386322917,0.204926474724863,-0.577687332362479,-0.092140213143862,-1.26112550227085,-0.559695639249641
509.385517808215,125,4.36316483097835,-1.9784547623288,0.14972135017277,-0.103665649727519,-0.142252140408379,-1.40159611027416,-0.330095868153925
510.388245205476,125.981972602736,4.6079155477388,-1.98374820548087,-0.257266150004555,-0.827406324664219,0.166539145946233,-1.11734339451956,0.252207043840504
511.390972602737,125.015300000003,4.89538074599891,-1.98482959999998,0.00994857995092563,-0.249636020009471,-1.00293105995741,0.758435329912634,0.711095779976675
512.393699999996,125.987427397256,5.24892237172454,-1.98424550958921,-1.67938018488321,-0.328319428345115,-1.16592166091732,0.780399313344808,0.180426772067025
513.396427397257,126,5.60246399745081,-1.98224195753449,-2.06536443007597,0.196062135385491,-1.53796741938368,1.36695194241112,0.44298284479421
514.399154794516,126,5.6840961510426,-1.97825905070122,-2.14106689320821,0.393468539822867,-1.03679191990452,0.502547943945742,0.416225231323483
515.401882191777,126,5.35920244705608,-1.59001185273849,-1.85556896176178,0.345815724396114,-1.62610201377657,0.561253867757395,-0.178596546904775
516.404609589038,126,5.30261754257425,-1.77243831851285,-1.52356284530586,-0.104345502688567,-1.97412731503212,1.95474490932977,-1.1457805027368
517.407336986297,126,5.35310283361117,-1.88018212022876,-1.57093677117687,-0.300374287639054,-1.64259288090718,1.11569917999264,-0.748514031732179
518.410064383558,126.003791780819,4.99152434779585,-1.87622048219255,-1.19207919779398,-0.0815548460333447,-1.7425475693187,1.44219579906019,-0.878576194321043
519.412791780817,127,4.92245889777232,-1.24901661520985,0.155494593379775,-0.131147691914205,-0.734951154696241,-1.01590904326077,-0.379360034329517
520.415519178078,127,5.2667704178068,-1.11927797639885,0.143876820105122,-0.774387751230592,-0.747234589082621,-0.980984824995497,-0.0311500024847638
521.418246575339,127,5.43060408117837,-1.97915799079524,0.114298581537926,0.88061656349469,-1.21521362848095,-0.0821838397317122,-0.156837098932012
522.420973972598,127,5.34503132509628,-1.69941309801598,-0.479941544598675,-0.783604351359544,-1.3679370638272,0.978738126281651,0.353362959439282
523.423701369859,127,5.20284588589125,-1.81341578356531,-0.823500665246819,-0.371272490970914,-1.75192624759604,1.27222689430781,-1.34052024549675
524.42642876712,127,4.98415104054863,-1.65560008765724,-0.556263121355459,-0.394877408207907,-1.9076877140223,1.8033142427712,-1.36607085598231
525.429156164379,127.02288356164,4.76545619520641,-1.55530419516892,-0.830585781758218,-1.01603193399524,-1.60935773973252,1.77224025340446,1.46268111638681
526.43188356164,128,4.63361835000007,-1.44889430409246,-0.358268893491635,-1.01706131415915,-1.42474871526803,0.854205561858722,-0.256564150137622
527.4346109589,128,4.61531857500009,-1.46771830263354,-0.704375770958362,-0.128278447860382,-0.804140463012592,-1.33945927110538,-0.275247348268783
528.437338356161,128,4.67342301610897,-1.25940979709437,-0.535985883071503,-0.884763403069429,-0.587685512217961,0.68166009307838,-1.17361576517843
529.440065753422,128,4.8292167718214,-1.14398690338124,-0.422150357820425,-0.413556735947481,0.528456067951933,-1.98450620189986,0.0039899791398692
530.442793150681,128,4.98501052753356,-1.19390376715028,-0.100297171309765,-0.13544526710466,-1.17964924656662,-0.466506773982019,-0.586425808256535
531.445520547942,128,5.12712599719816,-1.21040980190687,0.0703079937886205,-0.340374901252857,-1.06156443697274,-0.709426489427767,-0.465187267361055
532.448247945201,128,5.25232152638295,-1.14505529725149,-0.132218301438059,-0.351132562195794,-1.07962887743181,-0.478082722767899,-0.717843081623614
533.450975342462,128,5.30527774917823,-0.887338222605597,-0.699642776636823,-0.527777967237873,-0.621669000793604,-0.486145856817759,-0.865051549276154
534.453702739723,128,5.27081735095902,-1.4514458862429,-0.448930256786361,-0.254999478611737,-0.164152730610967,-1.92961365473043,-0.473151492616385
535.456430136982,128,5.23635695273988,-1.09791920545287,-0.539645778786032,-0.144504873685667,-0.180243649748603,-1.67872874656474,-0.872528635792222
536.459157534243,128,5.26149664646538,-1.02940073287806,-0.525522376926533,-0.411033545174437,-0.481977809043879,-1.0393328533236,-0.891966469589897
537.461884931504,128,5.2727481687537,-1.01056518412774,-0.361193647030692,-0.248341782556617,-0.864763969082527,-0.154638021089947,-1.66855231800994
538.464612328763,128,5.18708516720585,-1.0768628684825,0.099051354983777,-0.333357444682606,-1.14822872804945,-0.419831055299954,-0.719183887142886
539.467339726024,128,5.10142216565785,-1.12230087260532,0.0958694166843707,-0.168287911717615,-0.94998419188144,-0.716651757189295,-0.906742308502067
540.470067123283,128.063794520544,5.06543568438347,-1.02057985344271,0.0937891039443291,-0.372946072671108,-0.921846760262448,-0.591945891788216,-0.237893035604548
541.472794520544,128.933478082196,5.08512925046567,-1.11678958459724,0.207073475991522,-0.303008198047035,-0.980926730209951,-0.625330955750125,-0.288135375066141
542.475521917805,128.069249315065,5.10482281654788,-1.03168403945525,0.0546379099146822,-0.373627614898678,-0.843780013712371,-0.294326756196033,-0.409885789026138
543.478249315064,129,5.22300117424556,-1.02635921748529,0.0475655875567526,-0.665845840601005,-0.907520028260949,-0.210941519572684,-0.407161627907218
544.480976712325,129,5.44801320219093,-0.929271160409433,-0.0299810042470185,-0.419621873302481,-0.80602607534017,-0.270477516111443,-0.415502619835685
545.483704109584,129,5.60193326541057,-0.934811273260378,0.138074351811163,-0.228613532204274,-0.986295635473907,-0.139804229223609,-0.341954305345579
546.486431506845,129,5.68039668424624,-0.954831465206603,0.0647125218079567,-0.419738910130093,-0.944529948492221,-0.136161497530091,-0.370963096983463
547.489158904106,129,5.75886010308191,-0.965013400334671,0.0583371411352213,-0.493286653007314,-0.974076784179882,-0.117799139160421,-0.387750684622625
548.491886301365,129,5.55591800422147,-0.948333023575273,0.192083572971252,-0.406130836953057,-0.91929621101922,0.0644060834288091,-0.257328729490066
549.494613698626,129,5.06388969765948,-0.909494193972898,-0.0311163588216817,-0.466887903052026,-0.850203815068362,-0.00337261217570835,-0.207205986300641
550.497341095887,129,4.94215710958822,-0.889003478081631,0.142433169996194,-0.538784809586728,-0.877975283561584,-0.00481599808211825,-0.708411169863001
551.500068493147,129,5.19263841342356,-1.07980523629473,-0.156032967119122,-0.44829260863529,-0.928526384307103,0.0720585061511188,-0.637659889966203
552.502795890407,129.096523287668,4.91554887393901,-1.16345440822092,0.144717513249901,-0.05083789492776,-1.11983432420022,0.266648447853607,-0.172533379085661
553.505523287667,130,4.11957049629607,-1.4131033198598,0.141922042601901,-0.256929846127664,-1.07443487930094,0.255450973925454,-0.479131909812154
554.508250684928,130,3.32359211865168,-1.57637512260638,0.4567323415768,-0.201272550143063,-1.39918824838705,0.559310852214375,-0.726650839115284
555.510978082189,130,3.01873501522775,-1.61693397259841,0.414258693489511,-0.28051889383815,-1.45105097602746,0.684122775201471,-0.347680743635494
556.513705479448,130,3.18140079603579,-1.97742749041108,1.13104891658787,-1.074569898321,-1.49488275479404,0.735333871073477,-0.331480983683131
557.516432876709,130,3.34406657684412,-1.97623782876709,1.23454807308318,-0.624186212053409,-1.4528075239278,0.942531433269706,-0.801393639967368
558.519160273968,130.112887671228,4.55416178361931,-1.69263522191447,1.44552271035332,-0.330691903005152,-1.47743428642823,0.76175886747616,-0.776767726308978
559.521887671229,131,6.72930312194274,-1.65002429115255,0.12048483322499,-0.755146223839,-1.73795593079022,-0.35611643168964,-0.63430677453433
560.52461506849,131,7.40629615561886,-1.69662869178235,0.442241358345172,-1.57938320931433,-1.58619301371115,-0.374712370760762,-0.627206511633675
561.527342465749,130.878930136991,6.73274912196893,-1.68534791506755,0.534665499888719,-0.512158579040779,-1.81080305205544,-0.473331447534928,-0.49841819465806
562.53006986301,130,6.1855709425086,-1.36501337811921,-0.0013264087325788,-0.542773396732282,-1.6713045386138,-0.479230130947447,-1.07499124878244
563.532797260271,130,5.7498507929398,-1.56945737404014,0.42976938117253,-1.38929987467274,-1.91094352692089,-0.663717340359192,-0.669574382684898
564.53552465753,130,5.39145324230267,-0.778668436562002,0.92747473541103,-0.303710490068537,-1.9624019178021,-0.611302085194813,-0.604489536978965
565.538252054791,130,5.0997798969874,-0.609323194874608,1.02213869100676,-0.265492834605097,-1.93766908905094,-0.765381355127024,-0.795690980472902
566.54097945205,129.865293150689,5.04667152447873,-0.288020832772672,0.885297271618695,-0.276209399651894,-1.72304064477971,-0.930069953045168,-0.717855748881993
567.543706849311,129,5.19496989289664,-0.407002481847725,0.498746336348802,-0.650905999628938,-1.83194050279444,-0.893042548004545,-0.784751476198548
568.546434246572,129,5.27743750926018,-0.155036605206359,0.644967520227144,-0.398566651169523,-1.4184438496994,-0.739425279250004,-1.02527351005657
569.549161643831,129,5.30553393093138,-0.393194123513428,0.738953914882263,-0.483236913114937,-1.31564888992032,-0.648443042638764,-0.681380072181424
570.551889041092,129,5.20034770322001,-0.138743093678561,0.342705547956093,-0.545983194553354,-1.00769691781197,-0.647672860273683,-0.11924938959662
571.554616438351,128.851656164388,4.98747369041888,0.0967116448849267,0.360270222359313,-0.286807599216618,-1.03016708138356,-0.731657041976685,-0.0425178025922122
572.557343835612,128,4.88631428608225,-0.106003186191696,0.325160016441764,-0.24713931028009,-0.956614219144478,-0.586671929245517,-0.0832529944684445
573.560071232873,128,4.87344929357539,-0.115365361581067,0.299838254570915,-0.485419862294272,-1.02442703241877,-0.573129165345411,-0.139591631892973
574.562798630132,128,4.82480064168529,-0.193755988393427,0.194171038769435,-0.171442686714694,-1.0029896596165,-0.622441558246376,-0.0862127512110821
575.565526027393,128,4.74848807311675,-0.422534734586636,0.245072928767,-0.0733790319000546,-0.841893088786663,-0.648856642122952,0.0429631843327824
576.568253424654,128,4.69851770476722,-0.534861760367567,0.217281952738115,-0.393329300824509,-0.84632131814117,-0.668513374960658,-0.0914805720205169
577.570980821914,128,4.66846596467137,-0.350785950189871,0.23642423517869,-0.255201155376328,-0.655635431714062,-0.678374135619497,-0.233055261098037
578.573708219174,128,4.82901554332762,-0.384364366295473,0.211287074522273,-0.155310962876657,-0.858826272050104,-0.678186469039559,-0.117275907399684
579.576435616434,128,5.13052063077249,-0.58456217655865,0.278892459623172,-0.180999647154597,-0.688802086373965,-0.534825736032108,-0.134115394320498
580.579163013695,128,5.2596523217808,-0.706612332189102,0.21232734760096,-0.12003822602653,-0.683283390410369,-0.561411486300633,-0.0789179136950384
581.581890410956,128,5.2641194723356,-0.736124344870088,0.148542245446416,-0.069401893374648,-0.621788766157143,-0.57419303386284,-0.272934467138315
582.584617808215,128,5.22457097319211,-0.672174691237176,0.223718719726715,-0.130205663033663,-0.496652346251537,-0.628953045909882,-0.0939155527603902
583.587345205476,128,5.15389373259617,-0.759541220759723,0.257321443790099,-0.430681370595969,-0.663057915676269,-0.581257770939799,-0.179626867278208
584.590072602735,128,5.09618992000025,-0.833115980019312,0.293432780005467,-0.14676082999826,-0.30091699996453,-0.718827740036211,-0.263644120019512
585.592799999996,128,5.04745736849337,-1.30846312526995,0.345130308444151,-0.424552696796604,-0.53294654323816,-0.551549056848171,-0.200235984595636
586.595527397257,128,5.00940964761655,-0.850754393743628,0.323362274259161,-0.164385492506723,-0.0540652839321082,-1.26307240473234,-0.364444414186399
587.598254794516,128,4.97858580742481,-1.8093444118733,0.431842550068391,-0.0391279190548018,-0.111982282534238,-1.16936469109681,-0.452880133904225
588.600982191777,128,4.96203768664843,-1.97881894520567,0.159748105379811,-0.297668874797336,-0.16182797171243,-1.06113768465237,-0.170975469853326
589.603709589036,128,4.95492500697721,-1.98571999520556,-0.884617371588193,-0.445347163963482,-0.0534507804986811,-1.17443613356989,-0.179737103447262
590.606436986297,128,4.94781232730597,-1.98527476712332,-0.731201441012789,-0.692352183581535,-0.35812328560025,-0.570378282243181,0.543892729655789
591.609164383558,128,5.07390746849918,-1.98388362739719,-1.24944902711464,-1.41872635007889,-0.756108489086537,-0.280576482319361,0.521879319580215
592.611891780817,128.205619178078,5.28508687199895,-1.96525434841161,-1.48933639629599,-0.829774722032742,-0.3612126993605,-0.266459713894766,0.739680358890059
593.614619178078,129,5.19038853890534,-1.98501310753431,-1.99070974725485,-0.584804514493148,-0.528953401042136,-0.468809973615534,0.44764652582477
594.617346575337,129,4.90474492767278,-1.93824357809365,-1.85706507394039,-0.861527350215171,-0.832172040941002,0.618781775326602,0.380269844596451
595.620073972598,129,4.61910131643971,-1.41205686644091,-1.23741958658182,-0.37249938503058,-1.95646068095723,1.86847389705868,-0.108218732209603
596.622801369859,129,5.25867834720066,-1.72248802396141,-1.5331670341975,0.0395467703757912,-1.99197285480266,2.02388955890386,0.0671627164294487
597.625528767118,129,6.45617050046644,-1.98326732054778,0.0627919437440503,-0.29893087982471,-0.336596160885148,-0.863044528183996,-0.00554123296693834
598.628256164379,129,6.53388767607109,-1.88950245203939,0.00406273429721718,-0.680089009501029,-0.336061441626771,-0.968116252118058,0.081961832203393
599.63098356164,129,5.95188965378986,-0.824539532658141,0.325434130037202,-0.0812661027354028,-0.275104811581692,-0.948107273026152,-0.607105672416597
600.633710958899,129,5.87057450410858,-0.680879862329263,0.413368485616449,-0.0400364990410444,-0.509195493492538,-0.600335687329317,-0.154590337125183
601.63643835616,129,6.07741711161557,-0.660479195341243,0.206979903242092,-0.200479833790778,-0.628241215135056,-0.562763733289145,-0.234471045551389
602.63916575342,129,5.88846840241314,-0.818676655067244,0.376417304839772,-0.136966138502384,-0.115676673447164,-0.888678700231531,-0.37865815615081
603.641893150681,129,5.47702929676902,-1.19273792942657,0.344606722680338,-0.17851325376338,-0.253418559099972,-0.978371664513297,-0.840915031287125
604.644620547941,129,5.28102758728798,-1.02963165852309,0.321605167484412,-0.217050925478009,-0.198729746446282,-1.0625662121686,-0.632356505471808
605.647347945201,129,5.20329615945245,-1.16152291173902,0.323297119852823,-0.210139731175694,-0.118496702139264,-1.26156089897752,-0.410487819349285
606.650075342462,129,5.30042773749232,-1.4053882278483,0.298431152601678,-0.48716043885238,-0.104555517074551,-1.2483478164479,-0.592613819186694
607.652802739721,128.753469863019,5.49129188392361,-1.98128629086749,0.163228967281472,-0.427299545882267,-0.071785866333807,-1.16230285091641,-0.341395536860858
608.655530136982,128,5.57315845654783,-1.98393,-0.37614999999777,-0.792296966026058,0.00504794524185738,-1.03331810909904,0.346105738830893
609.658257534243,128,5.59798598690401,-1.98599922397239,-0.653530333735324,-0.878001396161357,-0.176859041978574,-0.84348066843482,0.243456699223928
610.660984931502,128,5.41626402817501,-1.98345280821838,-0.397105430254142,-0.836393564008737,-0.553090753269162,-0.605285359158351,0.346293188839745
611.663712328763,128,5.12903945007892,-1.98416406421248,-1.44330807871897,-1.01742383109132,-1.14655728710719,1.19809778424459,0.284736488191901
612.666439726024,128,4.84181487198283,-1.98292176986299,-2.10546536880596,-0.229522521865319,-1.52282359715235,1.631347535531,-0.145912664980673
613.669167123283,128,4.62437213896666,-1.96907008219168,-2.13724238035832,0.488239329214894,-1.63939710441042,1.38651772061315,-1.08462995532708
614.671894520544,128,4.44128915713776,-1.8720916255569,-1.37644364861958,0.695605674010911,-2.01783555981739,1.9594170173332,-1.47728281854583
615.674621917803,128,4.43699365593564,-1.7499090822321,-2.06536802732483,0.0530473891508021,-1.93551516434695,1.59044204337712,-0.973012279576001
616.677349315064,128.271076712324,4.5185822418261,-1.83954790275253,-2.16006,0.60038618631959,-1.8932834417768,1.72432623862037,0.289603103561909
617.680076712325,129,4.60017082771657,-1.64414223160409,-0.887889332642607,-0.882589398228578,-1.83796378642322,1.42390032481701,0.670568938642753
618.682804109584,129,4.67688071438318,-1.64019387942681,-1.36789463934125,-0.271829914518101,-1.2704135480939,0.0671741116226072,-0.04633043422239
619.685531506845,129,4.75133322362981,-0.82428464525428,1.60487959948707,-0.147742851188481,-1.00548350548113,-0.321824026655401,0.396199070619796
620.688258904104,129.281986301365,4.8257857328763,-1.76359810119764,0.654991142055433,0.815358496954139,-1.15163571713149,-0.782724451363699,0.883269662132546
621.690986301365,129.715286301374,5.30704236070228,-1.62089244627627,0.200337952209366,-0.359413916499544,-0.612304944348988,-1.10117422495714,-0.584481769421482
622.693713698626,129,5.96950925661369,-1.24898139623013,1.98835696986196,0.509152110280721,-0.542014533404307,-0.827583276340317,-0.0859238379802244
623.696441095885,129,6.14422222833581,-1.44475370450754,-0.295021197818194,-0.00240034496856323,-0.792113520573993,-0.417124076631329,-0.46721852058905
624.699168493146,129,6.10716643737003,-1.9740125314985,-1.82052206349836,0.753196196371158,-2.00933809450212,1.88002188330384,0.367967562524236
625.701895890407,129,6.04106959760304,-1.45658567243293,-0.460402678589996,0.440837095563474,-0.782342505191533,-1.33724230985704,-0.89362531713303
626.704623287666,129.298350684927,5.9626863969593,-0.954284253456846,-0.455656606339815,-0.491549658387074,-0.723672136961772,0.0874189163329443,-1.09607977900938
627.707350684927,130,5.87477749884286,-1.15866749516639,-0.410890388168243,-0.563959994103356,-0.652046635110872,-0.0817327590929165,-0.898407975808043
628.710078082187,130,5.78294271016488,-1.07990306027133,-0.414589738959464,-0.43676870331221,-0.687706177332181,-0.534766866681094,-0.80991296124539
629.712805479448,130.306532876708,5.69982668958942,-1.08626528562384,0.123810532828322,-0.152595476372673,-0.801221555934114,-0.450668823537969,-0.683246142117321
630.715532876708,131,5.6202101342469,-1.15606275684004,0.0676929260378398,-0.352226253428046,-1.07376977166141,-0.61110403187558,-0.926819182669887
631.718260273968,131,5.61819708689711,-1.3129340109494,-0.100733734026279,-0.210973856079227,-0.944496987930275,-0.644491307704298,-1.10537240815744
632.720987671229,131,5.64650909495878,-1.11324588621721,0.00155906391165046,-0.357243525642498,-1.03741170331053,-0.602998788126196,-0.912430841894208
633.723715068488,131,5.41398830348131,-0.948384786879987,0.0829889290284092,-0.0930067089529309,-0.957494637470062,-0.59232762858047,-0.63743410284795
634.726442465749,131,5.22681665956229,-0.963208392339766,0.171832529662067,-0.112194375879214,-0.989029615064687,-0.608348203027224,-0.305995332055135
635.72916986301,131,5.09387506123343,-1.15314686758977,0.207914482578476,-0.378131492474555,-1.08620353425571,-0.653510326724234,-0.731720646022919
636.731897260269,131,5.00346823057574,-1.04187949009444,-0.385915109361827,-0.738604452743071,-0.853509369002003,-0.317054424532502,-0.893369605079397
637.73462465753,131,4.92858454854829,-1.01029378955173,-0.744926324532864,-0.965337035569637,-0.532379457424409,-0.773843048060435,-0.662396061752659
638.737352054791,131,5.09203975365656,-1.54012101578826,-0.955696044074009,-0.48948294519701,-0.707777002596686,-0.923293654736849,-0.902218611698295
639.74007945205,131.33380684931,5.34007941627957,-1.70777716503877,-0.479074149061825,-0.573484596893804,-1.93631249998641,1.87411272819445,-1.70707984179891
640.742806849311,132,5.1821495879465,-1.47344082245901,-0.671711454792829,-0.722048597717685,-1.95595240274063,1.74329335063326,0.0626876791662644
641.74553424657,132,4.884169087303,-1.81663297057129,-0.537990050441991,-0.941221164267298,-1.20937098673647,0.717861461591349,-0.0966235885295412
642.748261643831,132,4.58618858665896,-1.55112371448099,0.552829561610222,-0.757182360103221,-1.38115855926745,0.0622376988024615,-0.18773355053722
643.750989041092,132.344716438352,5.18131307389361,-0.791166279669668,1.76597442220629,-0.0871179940173933,-1.12107047104839,-0.877443748369566,0.500042783678297
644.753716438351,133,6.07149936172138,-1.55688747438051,0.518995036308359,0.516677033370713,-1.6847583993281,0.650486354199677,0.943948227222327
645.756443835612,133,6.20993911133608,-1.59495068886653,-0.639184762233677,-0.145664916695245,-1.23216772156923,0.746916191100859,0.100690380556655
646.759171232871,133,6.1072046758499,-1.41514615754303,-0.402061585614868,-0.664485650938957,-0.756758986680774,-0.632870378558045,-0.920988389398004
647.761898630132,133,6.14531435460918,-1.73226335311497,-0.855672412878107,-0.25359611843903,-1.10626348193512,-0.510006918785641,-0.0814967536325948
648.764626027393,133,6.22728230569828,-1.90735294451887,-0.710584218078414,-0.18711520266148,-1.45669704060652,-0.182798818138805,0.502616842317016
649.767353424652,133,5.86056651630407,-1.87998032004628,-0.0809442003298828,-0.191046156878914,-1.58942218981089,0.996048546271073,-0.554201327623774
650.770080821913,133,5.35830036301605,-1.91038923282097,-1.31577478349531,-0.370220076671377,-0.846602295357823,-0.624169469101246,0.0324269657650258
651.772808219174,133,5.47858379278646,-1.61680256465525,-0.43937075860088,-0.134797129358437,-1.89622895789275,1.81394712056012,-1.28694550074746
652.775535616433,133,5.78124201673818,-1.75942326575617,-0.567547966845245,-1.03129595621109,-1.06189367728987,-0.264632065191531,1.54439152997327
653.778263013694,133,5.71182078910351,-1.09714034980057,-0.633483729598863,-1.08252561703517,-0.707714765574708,-0.667085505475096,-1.82462577402918
654.780990410954,132.625282191786,5.53675962645302,-1.51402790276376,-1.16675288887423,-0.39584306286463,-0.804703945618458,-0.67603220251198,-1.30111815602086
655.783717808215,132,5.25946058709052,-1.07577786994212,-0.63970141267014,-0.510024700447707,-0.145402594655241,-1.7540845632506,-0.730918100218724
656.786445205476,132,4.95404486279579,-1.58439833448595,-0.601882128307889,-0.382514776975262,0.00754811253980954,-1.97435656480733,0.601184895816932
657.789172602735,132,4.68176619400139,-1.93215996012774,-0.395668724961914,0.467891405170139,-0.0675104468456891,-1.61767678043663,-0.702435659913016
658.791899999996,132,4.41830959764504,-1.41793345705704,-0.646765655952278,0.00764492281387175,0.20982743493623,-2.05449792876865,-0.34679102841773
659.794627397255,132,4.42014888852015,-1.13164715413248,-0.196466398178161,-0.495658906113662,-0.596214251949866,-0.72979859410897,-2.59923851546147
660.797354794516,131.608917808224,4.49031975178047,-1.06886890376363,-0.187438348668632,-0.522126324679418,-0.383966384479408,-0.628683198620458,-0.811540916922452
661.800082191777,131,4.56049061504079,-0.994079512396654,0.0326077859325597,-0.468943038833883,-0.938822393974746,-0.402161156989543,-0.802670454861932
662.802809589036,131,4.94355620988791,-1.08064726823461,-0.0563746060670698,-0.512245872417233,-1.06920983014229,-0.719000153430871,-0.309512925761681
663.805536986297,131,5.40321647606631,-1.12859988220578,0.122372471155505,-0.224025531114592,-0.553786434938093,0.11514579257718,-1.08375957123483
664.808264383558,131,5.47760814540907,-1.05703065205259,-0.0168067567490183,-0.437851368299942,-1.09682077329784,-0.48196224803792,-0.394600570299877
665.810991780817,131,5.46091416671242,-0.979462756848452,0.0252866923041396,-0.528017299555629,-0.937016409837834,-0.389272721983154,-1.00692221191759
666.813719178078,131.407446575338,5.44422018801573,-1.01845344740229,-0.173092236410583,-0.367153429637047,-1.02705532602796,-0.454908656982666,-0.372054413695802
667.816446575337,132,5.42752620931908,-1.00989768606747,0.0264607072054173,-0.831024750788104,-0.903251236319177,-0.400835447100612,-0.280301812971775
668.819173972598,132,5.41083223062239,-1.01232878410581,0.0206374919733106,-0.390689931896354,-0.869713953293209,-0.324484192608045,-0.910119338930057
669.821901369859,132,5.39413825192571,-0.983848495097848,-0.0916079862761549,-0.467327602186271,-0.903298359294252,-0.457504245828861,-0.536857718525012
670.824628767118,132,5.37744427322905,-0.937347000010428,0.168715056108717,-0.164198971161169,-0.887979565757727,-0.363093130142195,-0.886712435616407
671.827356164379,132,5.36075029453237,-0.861637182258536,-0.0346716621373535,-0.658022330596624,-0.879082174351755,-0.178156612477456,-0.369674931127427
672.830083561638,132,5.34405631583571,-0.958413818628878,-0.146962864223075,-0.60264458986666,-0.873514324841135,-0.19280295228755,-0.83850251501226
673.832810958899,132,5.32736233713903,-0.932831914520774,0.0648006500184764,-0.696335152689072,-1.00463239904231,-0.1492630804764,-0.271258161983562
674.83553835616,131.570734246579,5.31066835844234,-0.943570027382479,0.0575511347846586,-0.216065700834581,-0.936284139256333,-0.154326740964621,-0.731041057548252
675.838265753419,131.43199315068,5.29397437974569,-0.882822181168279,-0.105467871117689,-0.311974123284127,-0.910678044624087,-0.310948855496189,-0.995372285187004
676.84099315068,132,5.277280401049,-0.987011723362391,0.0162897944037738,-0.414030717687355,-0.890127209725278,-0.203879133881737,-0.436684466944561
677.843720547939,132,5.26058642235235,-0.952856442531329,0.133361278491923,-0.620370698340603,-0.912453938759014,-0.0734679129087372,-0.36447986781158
678.8464479452,132,5.26129932506847,-0.99706060012726,-0.0188512200302339,-0.387942439724632,-0.930111177537327,-0.16301540022252,-0.389263549304981
679.849175342461,132,5.26515982554793,-0.945062945081035,0.0631165133299599,-0.975396718082551,-0.925917517623554,-0.0877846067064136,-0.740350349993273
680.851902739721,132,5.00173759945381,-0.993048277402776,0.0706749499833374,-0.21853417979609,-0.913609453772111,-0.129675918143964,-0.494065023932231
681.854630136982,132,4.69199844886455,-0.973876428705822,0.263882906132342,-0.354480512909878,-0.957882657676194,0.0621275145776491,-0.196697045430034
682.857357534241,132.451084931501,4.38225929827586,-0.967830879588001,0.0633453817987397,-0.833800533163802,-0.940310292611266,-0.0485155299175722,-0.483696798322183
683.860084931502,133,5.1482501128374,-0.959211940899905,0.127072467245524,-0.556736677609252,-0.83831805499888,0.0451616036349881,-0.289399738023705
684.862812328763,133,6.08868307054353,-0.803553779724301,0.0623519179392453,-0.652800886301235,-0.814656038349778,-0.0629968192166048,-0.580389938341378
685.865539726022,133,5.91907124181706,-0.930522345435911,0.156639513025477,-0.855319391005585,-0.850897307420735,-0.114150613013512,-0.476763323511948
686.868267123283,133,5.57755733122093,-1.02435384656968,-0.0864597568564295,-0.949569460325795,-0.929202138086614,-0.135976368217506,-0.413422386290296
687.870994520544,133,5.35610154935022,-0.948780483289831,0.0203095767470556,-0.620291648089803,-0.71123078422364,-0.0283933467593713,-0.256575740926897
688.873721917803,133,5.15237241041209,-1.02851788346266,0.127695774179616,-0.378375448358468,-0.802798037715705,-0.110008176895084,-0.298615114521197
689.876449315064,133,5.37135583064248,-1.00797007602939,-0.109606692904885,-0.311784225884854,-0.786489883631083,-0.189589229690479,-0.252956397226241
690.879176712323,133,5.64974303794354,-1.00246745205504,-0.0849829884585891,-0.0454065172602631,-0.746597845204082,-0.0266859373971962,-0.386298252053749
691.881904109584,133,5.12086418683213,-1.09817563150698,-0.0663165609828213,-0.229330033493204,-0.822741165547902,0.0147370562670802,-0.183811269315235
692.884631506845,133,4.48421752140018,-1.10968100712025,-0.0536799677267794,-0.570017851351497,-0.939408359933337,-0.123387754802319,-0.634324157119999
693.887358904104,133,4.55427712709498,-0.988909648619992,-0.0105919255727364,-0.458524908173169,-0.934322434723802,-0.034431561300181,-0.404860329776935
694.890086301365,133,4.71377094690331,-1.17611761187213,0.156074374831486,-0.328659913734949,-1.02605164271346,-0.0502723772686078,-0.499724899770412
695.892813698626,133,4.9281300919511,-1.30294770546944,0.163170168827986,-0.137014154454425,-1.10572292361528,0.191656049308118,-0.33031988773826
696.895541095885,133,5.14905600575222,-1.18947840638685,0.339234926120357,-0.270267539624114,-1.09786070957299,0.240835954510321,-0.237780956444544
697.898268493146,133,5.39829571540976,-1.11713273039247,0.0303766098980099,-0.387999447367737,-1.07286305914355,0.211843037066682,-0.228305794346143
698.900995890405,133,5.65073233766975,-1.30561708766794,0.0683342215902307,-0.11591828107352,-1.2117732465643,0.0378967691979946,-0.154577292923669
699.903723287666,133,5.9031689599302,-1.34025399640458,0.26832793874837,-0.291607077567965,-1.26557161574148,0.371665343892322,-0.201567523011538
700.906450684927,132.499821917812,5.55665724520731,-1.21487328082725,0.354851620536477,-0.148899371913464,-1.13761445892591,0.269748933999279,-0.243975946576199
701.909178082186,132,5.39683809380898,-1.29230911092131,0.357333458890948,-0.202008930214151,-1.14817429382306,0.260230762692455,-0.184725548505002
702.911905479447,132,5.26175065884998,-1.36654533144942,0.245287668505785,-0.248573135328422,-1.14183347668686,0.481281797810031,-0.0838147970400919
703.914632876706,132,5.093277425654,-1.2240686000104,0.327092131505727,-0.111940591698527,-1.17361203041886,0.268112261316983,-0.262581380061158
704.917360273967,132,4.92169739828402,-1.33817229176584,0.322519695492088,-0.122991633672945,-1.13504803654067,0.273804712995634,-0.132580176143017
705.920087671228,132,4.75011737091404,-1.22463876141017,0.144364212776819,-0.509078532759675,-0.774385537677961,-0.0106630335590919,-0.413826483568836
706.922815068488,132,4.71042560234263,-1.45648183285601,0.258193154803418,-0.126401066257759,-1.22478205476486,0.362847657541115,-0.213613826488704
707.925542465749,132,4.68173255787001,-1.38491328543479,0.21851971278075,-0.44678788763608,-1.22724976848156,0.514061889300628,-0.119474706986159
708.928269863008,131.478002739732,4.84697089769751,-1.22290985821902,0.351507706666547,-0.205428671780579,-1.19333930412496,0.308158614816473,-0.0779899701689503
709.930997260269,131,5.02715098371134,-1.51893255662143,0.412582389679109,-0.29612808013807,-1.28007986657094,0.490752686004902,-0.127103204081309
710.93372465753,131,5.16987298753357,-1.47656814609356,0.256709071711876,-0.761064525189019,-1.32697693606804,0.463335986303559,-0.296828687672335
711.936452054789,131,5.3099439776567,-1.47273011777449,0.307807822399362,-0.624569834228783,-1.37856354449953,0.533354186921343,-0.208561780337647
712.93917945205,131,5.42984874213636,-1.61665916095523,0.12065988193088,-0.454639869031752,-1.43351749862944,0.504165712599942,-0.437001342183611
713.941906849311,131,5.54845133868439,-1.5446403102643,0.26776050393272,-0.262523425409796,-1.38770353982385,0.432154186735465,-0.514914014829374
714.94463424657,131,5.25372952364564,-1.56083152464489,0.38796949192265,-0.481061977785803,-1.29155375263655,0.475116578089555,-0.15190611036774
715.947361643831,131,4.93485218404268,-1.64293901826919,0.4457979611968,-0.343484579218995,-1.34389211833388,0.420728528352946,-0.349339453580715
716.95008904109,130.45618356165,5.06197392698538,-1.69440149130755,0.331391914775341,-0.302766340546463,-1.54375754246542,0.457800779316921,-0.358378021027523
717.952816438351,130,5.21245824112933,-1.70417262719175,0.665435401477227,-1.58360536371336,-1.45696238424889,0.690622252620261,-0.3585234124467
718.955543835612,130,5.06377027637063,-1.87763006847001,0.635077686378054,-0.874344946126611,-1.3635326143926,0.760683822473693,-0.397220699869021
719.958271232871,130,4.90120309708999,-1.86380742328869,0.812366619139151,-0.369714594229378,-1.57559781565786,0.825484019814236,-0.274604641340182
720.960998630132,130,5.11849335013579,-0.986734938354532,0.228090304966653,-0.330522717473849,-1.00622181849232,-0.153613946244191,-0.261123101384144
721.963726027391,129.442546575348,4.73776108554134,-0.833345065128303,-0.142661008231251,-0.629139721161974,-1.02733584223557,-0.679079341943897,0.0641871706408576
722.966453424652,129,4.33400621418489,-1.0345932748855,0.063866329114808,-0.175098838903782,-0.897776589046455,-0.323207615345824,-0.177118464655779
723.969180821913,129,3.93025134282845,-1.01724611169658,0.113553743087994,-0.155832486119617,-0.960984976747945,-0.295303131918755,-0.138340684759803
724.971908219172,129,3.81257801517874,-0.778419094560562,0.509902796030551,-0.601184999306497,-1.03683874382265,-0.115130893604921,0.107940534343449
725.974635616433,129,3.70315037431565,-0.87581984144438,-0.106956829958552,-0.0669930270577488,-0.893763064896189,-0.0882485076686565,-0.649011972607257
726.977363013694,129,3.92861472642358,-0.983422960961448,0.265088657668932,-0.0870053814744742,-0.996264551171947,-0.0835551846211437,-0.02289030737757
727.980090410953,129.573817808214,4.16181402356716,-0.990832512295052,0.240045986883602,-0.0806810084279945,-0.997496389418561,-0.0988082186688461,-0.0551934231833142
