Time,ZephyrHR,COSMED,ANKLE_AccX,ANKLE_AccY,ANKLE_AccZ,THIGH_AccX,THIGH_AccY,THIGH_AccZ
0,79,1.1827748809211,-1.00319643973828,-0.0665005889754738,-0.476918268947633,-0.964552973025397,0.0341574183250167,-0.45669877959553
1.00260526315742,79.7332105263113,1.3001047618421,-1.09004585964709,-0.0318715116439991,-0.447738714016561,-0.912831688598842,0.331314509648028,-0.188405296318081
2.00521052631575,80,1.41906435210539,-0.94563119385765,0.0144359364014947,-0.229941275474721,-0.950655838817005,-0.0295569082229766,-0.517507785510392
3.00781578947317,80.738421052627,1.74545246947366,-1.06517650524763,-0.186456389457667,-0.689581852552477,-0.884777049120802,0.0110242246954927,-0.0985257434972376
4.0104210526315,81.7410263157853,2.06736025065789,-1.01389864035066,-0.083182078069478,-0.174794940782278,-0.960123143640772,0.00413114495506841,-0.492648328949316
5.01302631578892,82.7436315789428,2.04890730078948,-1.05746136841865,0.0821628552860075,-0.235989452621628,-1.03509080701694,0.11344959560879,-0.163473847360424
6.01563157894725,83.7462368421011,2.02696573421046,-1.29222607017115,-0.27286281009285,-0.492888072839403,-0.915082236839844,0.22353567499845,-0.0824866734207234
7.01823684210467,84.7488421052585,1.81671941052635,-1.66264407016963,0.379108056884181,-0.357098003522162,-1.31903821057562,0.365725410485446,0.251274492673938
8.020842105263,85.7514473684168,1.61609436276321,-1.00636276900555,-0.0286495484498817,-0.380435,-0.954982745559004,0.104256428668217,-0.385130873354513
9.02344736842042,86.7540526315743,1.8172520697368,-1.01863157894588,-0.169542078946475,-0.330634973682825,-1.10317736842083,0.140035552632918,-0.30482650000236
10.0260526315788,87.7566578947326,2.01798306065794,-1.25242525437028,-1.13327516411033,-0.0536495566174268,-0.838945709202798,0.762711539440725,-0.150920030256414
11.0286578947362,88,2.20421197526311,-1.3425584210544,-0.332339905267095,-0.544072926316988,-0.692030785267314,-0.341233376846208,-0.000124977116252535
12.0312631578945,88.7618684210483,2.38935202013161,-0.260235043860343,0.0790169767823892,0.0342601181019144,-1.01352147999632,-0.486653863156616,-0.355241885801231
13.0338684210519,89.7644736842058,2.54334717552627,-1.38174274420506,0.0267107311563055,-0.337445354735164,-1.40577353947351,-0.322337882902799,-0.347151936843424
14.0364736842103,90,2.69842501315792,-1.49679486841166,0.0145867578921895,-0.42934827631144,-1.00606855264297,0.663396401283884,-0.408015621675054
15.0390789473677,90.7696842105215,2.88019734736836,-1.05483831578654,-0.000568836733057992,-0.167505689468856,-0.992176005262408,0.235681415788576,-0.339912210531458
16.041684210526,91,3.04126922447365,-1.09508984210473,0.0190621460549758,-0.275009010527416,-1.01021293158228,0.185061277629858,-0.34321291644791
17.0442894736834,91.7748947368373,2.75443388473694,-1.07885164693121,-0.134750121754375,-0.749216675440372,-1.21083581578794,-0.177123153290057,-0.350529327633326
18.0468947368418,92.7774999999956,2.46759854499998,-1.77686700002082,-0.459690062472891,0.18637221250155,-1.43182595000405,1.09997136071953,0.080223607858008
19.0494999999992,93.780105263153,2.18076320526327,-1.7198165789519,-1.69396657895011,-0.679004631577307,-0.914658717103408,1.30656311184762,-0.742997078947251
20.0521052631575,94,1.9427978607895,-1.36312903947877,-0.181245288489907,-0.305300408551691,-0.653822589144425,-0.517278286167027,-0.00860245643939877
21.0547105263158,94.7853157894697,2.55153633035117,-0.265669413157064,-0.0222201580250439,-0.154153417890475,-0.811059606572724,-0.422539442100998,-0.311781690788833
22.0573157894733,95,3.16027479991228,-1.08956463481175,0.188225781599979,-0.583923293272198,-1.29592763909865,-0.480106629323725,-0.45918871842011
23.0599210526316,95.7905263157854,3.72778393789471,-1.85716239473399,0.314440507886421,-0.83342137893788,-1.1829838421089,0.992301423688925,-0.102591219999362
24.062526315789,96,3.67541285197369,-1.16742944075709,-0.0782871032835795,-0.512535105339432,-0.939343809210298,0.300179365131016,-0.23057638486674
25.0651315789473,96,3.63378347447373,-0.971221465788041,0.091719272895875,-0.30843002763202,-0.859589830527137,0.369260059999019,-0.204996725263757
26.0677368421048,96,3.7404055311842,-0.964148085789395,-0.0834785529504077,-0.276786332636215,-1.04955202882552,-0.114392556836459,-0.553881880811905
27.0703421052631,96,3.85725833473693,-1.0676788157937,-0.194219555261569,-0.382443147363253,-1.52638774435343,-0.277312183458272,-0.27158141653957
28.0729473684205,96,4.10449410859646,-1.42765142764989,0.0435439639007424,-0.127119874309274,-1.44587350660254,0.52836809349266,-0.288457926933368
29.0755526315788,96,4.35172988245622,-1.49027894739303,-1.80934973682264,-0.443707381588313,-0.862626344306665,1.13799376092331,-1.13125574994454
30.0781578947363,96,4.52965484881588,-1.43058506578617,-0.183736,-0.314968146930435,-0.598045946052786,-0.325350675657569,0.0259091027237768
31.0807631578946,96,3.91645645684194,-0.256042221055647,0.236676770593831,-0.0158583683372314,-0.970648315799002,-0.360270168420241,-0.300835473686492
32.083368421052,96,3.36383813184209,-1.81858182455895,0.367427284208981,-0.645609802631747,-1.50431571051908,0.0580896685929052,-0.399224263064765
33.0859736842103,96,3.45711049947371,-1.46436949122369,0.0200955332244034,-0.314780863153342,-1.08955950000039,0.388394431577659,-0.225446076316249
34.0885789473678,95.1808157894784,3.54052038289474,-0.994557105263535,-0.0503325667770401,-0.223694901316835,-0.919606486841377,0.217744407894944,-0.432702651317651
35.0911842105261,95,3.52535096526316,-0.986012544440548,-0.0295683198800982,-0.402283757018632,-1.05868415262656,-0.109333117099048,-0.381749194742724
36.0937894736835,95,3.51677542960525,-0.894358693414602,-0.306461460984936,-0.244210974996041,-0.915256084869092,-0.173829128902252,-0.417918923024854
37.0963947368418,94.1730000000043,3.57018922500001,-1.61874759997238,0.906776499957855,-0.0402535333899549,-0.809152787451904,0.650655024906271,-0.575793372562752
38.0989999999993,94,3.60568747236846,-1.80630935263339,-0.328219676323422,-0.589002152649225,-1.02014703551666,0.368036045162326,0.0532618317551366
39.1016052631576,94,3.48231689473683,-0.848243947390457,-0.0803152358025555,-0.186556000011239,-0.687499999995737,-0.673945824553848,-0.254861494734049
40.104210526315,94,3.38704848315784,-0.346926521055073,0.55139386315754,-0.0797167001343574,-1.51175430266151,-0.421309594076718,-0.392890778983546
41.1068157894733,94,3.52745332421054,-1.86863364473344,0.242314872491462,-0.665626563170572,-1.14400924122158,0.7279560061326,-0.0839493386933629
42.1094210526317,94,3.62708114644725,-1.03669380263173,-0.029465888151785,-0.289477756580534,-0.991768092107208,0.189246068422136,-0.1746146078929
43.1120263157891,93.1573684210571,3.40254268473683,-1.00526910526323,-0.197649024211693,-0.314720945681446,-1.12375929824901,-0.109717040353776,-0.194199835088681
44.1146315789474,93,3.16793709539459,-1.06892233331761,-0.298365030676958,-0.546343359676652,-1.21620848684482,-0.0847008769956532,-0.508552154602838
45.1172368421048,93,2.85730491973684,-1.17880515795343,-0.587235968117732,-0.147404174957504,-0.913365897399655,0.0544594666877249,-0.082694065242918
46.1198421052632,93,2.66383161065818,-1.69559628293766,-1.71517684874046,-0.530227468437107,-1.02130158681307,1.68826478938658,-0.389472465744614
47.1224473684206,92.1469473684256,3.31250217684208,-1.28765701754355,-0.151632236491015,-0.339714045614008,-0.588837663160287,-0.539504757902664,0.00961048842634115
48.1250526315789,92,3.84961059394728,-0.222975072357639,-0.117564000660466,-0.238485419716495,-0.896085526320768,-0.505206803286223,-0.592228553967648
49.1276578947363,91.1417368421098,3.62208938157896,-1.2414228070163,0.2262462105253,-0.350314438595062,-1.3888706578703,-0.467650105294512,-0.458304118407128
50.1302631578947,90.1391315789515,3.48197632434226,-1.3480504013116,-0.0335340407225812,-0.738401851308226,-1.09993847532345,0.437856680891717,-0.284449883510292
51.1328684210521,90,3.91402399736837,-1.06311389474094,0.0583634631488481,-0.533374873712599,-0.982651557891976,0.392193035537771,-0.283860852614436
52.1354736842104,90,4.28802051934211,-1.01266396368391,-0.129719004893802,-0.427010890008221,-1.04142370105193,-0.0636893305936388,-0.53440337420931
53.1380789473678,90,4.29855288763158,-1.0603607500001,0.0615867984198997,-0.220306431583365,-1.11424550790371,-0.0597158852584936,-0.373592642143616
54.1406842105262,90,4.24560443684198,-1.55132815789659,-0.0803288421268051,0.0329162631494345,-1.27898552634027,1.42368000000837,-0.0361338815555767
55.1432894736836,90,3.81195760842114,-1.81611210527548,-2.08510694732745,-0.215240447387982,-1.02270972630146,1.89741789467916,-0.816268915741877
56.1458947368419,90,3.3783107799999,-1.6588162499943,-0.368476549996864,-0.595624824999654,-0.682526349997196,-0.508252149990798,-0.00028147674530824
57.1484999999993,90,3.12424046842088,-0.23458969999459,0.00297161414961267,-0.0703349289224978,-0.849473721069784,-0.534306215790163,-0.319037673695381
58.1511052631577,90,3.72830395999995,-1.75658205264718,0.371937327634094,-0.624871184187792,-1.23516507017596,0.0837456626834489,-0.212957664044418
59.1537105263151,90,3.48294640000007,-1.22466052631653,0.0350245210516338,-0.268592789472436,-1.05771596491052,0.311252245617519,-0.153656561411245
60.1563157894734,90.8869210526273,3.1458027941446,-0.992480142981869,-0.0329875137767966,-0.499254895633414,-0.901089638170049,0.191854954608463,-0.508397369694645
61.1589210526308,91,2.32138304486868,-0.945461376317429,-0.154608908773248,-0.222793374564296,-1.04542647368273,-0.0469922897507581,-0.221656352637411
62.1615263157892,91,1.75117192638167,-1.09490476315746,-0.0826421305284437,-0.340860800006969,-1.08575569211576,-0.241906482898031,-0.311389627631056
63.1641315789475,91,2.47959723473725,-1.25456905257992,-0.0662008247996941,-0.0721468758061392,-0.867063865801762,0.37249320262723,0.0351236505518324
64.1667368421049,91.8973421052588,3.08488162105263,-1.85551736844096,-0.540297267528279,-0.41654250875625,-1.07023026315141,0.462549197363878,-0.0907448394743211
65.1693421052632,92,3.08423995368421,-1.21867410528493,-0.106010743695548,-0.294256257890273,-0.544212643853102,-0.495818298241359,0.227161643679242
66.1719473684207,91.0974473684255,2.91293352368417,-0.226987296831537,0.420128938184067,0.112015060664165,-1.09523648683825,-0.479414132900717,-0.214959615791414
67.174552631579,91,1.9320179543855,-1.44580668421884,0.404000836844968,-0.811295984201545,-1.34176610525908,-0.0296722507970503,-0.370935150812685
68.1771578947364,91.9077631578903,1.37931140982457,-1.40374477631353,-0.0494230302361553,-0.220458926315524,-1.05307399122802,0.576512465787907,-0.281867998246357
69.1797631578947,92,2.786675101755,-1.02311671710555,0.043692446707767,-0.415732263166126,-0.881962758775118,0.395498999985015,-0.462146552619124
70.1823684210522,92,3.87785556802633,-0.913456513159424,-0.124981641193109,-0.347642682885413,-0.929499642108963,0.0173481063090363,-0.255820855259865
71.1849736842105,92,3.57142430842093,-0.975907884222065,-0.169060500007169,-0.354182089474231,-1.34501237894119,-0.0545366115784857,-0.498270589475303
72.1875789473679,92,3.33606869197368,-1.95725805286141,1.96436805582404,0.431615968607067,-1.0584106183664,0.799756313074887,-0.379125010613315
73.1901842105262,92,3.40433107131581,-1.93881742105405,-0.918843214391307,-1.35833955930207,-1.11418711052216,1.0532564631701,-0.103452937907533
74.1927894736837,92,3.53516568421048,-1.13243569734877,-0.217867111837336,-0.681936171092295,-0.594983723683798,-0.469151565789598,0.0375612644737822
75.195394736842,92,3.81855151999995,-0.134328651998236,0.489696398011869,-0.00556566399796273,-1.20692800009313,-0.5212337000101,-0.506243799986223
76.1979999999994,92,3.67140917157897,-1.95492293871957,-0.271766652051794,-0.13036330523139,-1.2010775197431,0.182662403024437,-0.198145276437784
77.2006052631577,92,3.59184753184216,-1.39957685083832,-0.0345550011740798,-0.65456459392508,-0.978010498685336,0.654335101299636,-0.325323346036552
78.2032105263152,91.066184210531,3.77813660276312,-1.01921599210809,-0.102951730231805,-0.341627224941961,-0.998177601973719,0.339713320394856,-0.350454314473557
79.2058157894735,91,3.76361754736823,-0.96026659398447,-0.0550230631579273,-0.105173263154265,-0.989316092104321,-0.0291232618411159,-0.394642671059657
80.2084210526309,91,2.98392318337737,-1.08152030263408,-0.0210201376140139,-0.445693477632965,-1.04762314473803,-0.0246624163138403,-0.306851913157807
81.2110263157892,91,2.20422881938581,-1.34605801051654,-1.30036363154075,-0.422920215789783,-0.45919989475736,-1.02457752630887,-0.0823789700080476
82.2136315789467,91,1.83905958072337,-1.84881880922046,-2.02384335058464,-0.207099251363223,-0.96663799473587,1.44349242631294,-0.626067842099059
83.216236842105,91,2.9813553286844,-1.56010229473945,-0.104839519327552,-0.314199614738144,-0.516930157899045,-0.497551405260008,0.0109465141131808
84.2188421052633,91,3.84503430197361,-0.325341024121969,-0.0626608453942375,-0.184964239035791,-0.911602532898803,-0.389094585525627,-0.222700624999863
85.2214473684207,91,3.7258897055263,-0.785962626331549,-0.0799917170231542,-0.352556897113754,-1.30807242104339,-0.58799898944345,-0.454283071047759
86.2240526315791,91,3.48180334447331,-1.47715646049905,-0.0946705244673207,-0.510604738139229,-0.941900486848017,0.597212900002363,-0.40756832104219
87.2266578947365,91,3.11975884421058,-0.941275170173351,-0.0613918085958788,-0.802669684218104,-0.870180599997372,0.179206721051716,-0.274147468428647
88.2292631578948,91,3.80262326289509,-0.981120822296592,-0.16930868985766,-0.81464628422651,-1.02275357894097,-0.188983928952398,-0.189142500003979
89.2318684210522,91,4.06278028223679,-1.20970596491339,-0.200856105263848,-0.131717235963101,-1.30238184212205,-0.00462721316275784,-0.3156545263077
90.2344736842106,91,2.93815545203894,-1.38990493422369,-0.0414298027287456,0.0537587763574063,-1.11442728285585,0.902966897326784,0.0449557208236823
91.237078947368,91,2.38586535763158,-1.71042584211336,-0.619842831579044,-0.532137305262187,-1.00199067369795,0.750610444785678,-0.134224231552247
92.2396842105263,91,3.65533155717161,-0.642996028947213,-0.0642075446491052,-0.289093993275015,-0.642617168419852,-0.62835644603691,-0.135025278274197
93.2422894736837,91,4.61831260578947,-0.477652358334738,0.118465653242401,-0.15560552605321,-1.74874851754397,-0.31264586403387,-0.364979544736846
94.2448947368421,91,4.63302082500001,-1.94367949999147,0.381857750015509,-0.530489300027273,-1.4287200000057,1.15666214285912,0.0273065357255079
95.2474999999995,91,4.62179688000001,-1.33020168421037,0.0529024578946375,-0.23223523859674,-1.09595705263686,0.513314231570052,-0.191402
96.2501052631578,91,4.53254997249997,-0.987762857898749,-0.0854211682971133,-0.298292934207703,-0.966106164284774,0.144593319132091,-0.419037798122108
97.2527105263152,91,4.44330306500001,-0.973344700655789,-0.277133319083078,-0.40316743159424,-0.992754182105758,-0.0711037551573853,-0.27955513473492
98.2553157894736,91,4.35405615749997,-0.986922011839808,-0.0136964829010015,-0.317488965791969,-1.03227109935297,-0.160673148688585,-0.390023901983803
99.257921052631,91,4.2105911184211,-1.25757147371295,-1.29522547375603,-0.291579178942413,-0.884998467097728,0.987435651280811,-0.398561394729566
100.260526315789,91,3.91269202960518,-1.79121215789552,-0.439182616427101,-1.06995213163146,-0.673495532231625,-0.321751076326371,0.0423167086186075
101.263131578947,91,3.62680956078952,-0.542786753296839,-0.00340347684332673,-0.129691053940396,-0.736812189479081,-0.524946721043461,-0.248990112632921
102.265736842105,91,3.37424828197362,-0.507401039251171,0.158008084211116,-0.47976871306668,-1.55373439567553,-0.397787787406746,-0.835737168413781
103.268342105262,91,3.30827626315779,-1.93457500000512,0.435333563155656,-0.603392452628172,-1.17370431574859,1.03142936838148,-0.167764243969227
104.270947368421,90,3.59952075263156,-1.10434765350982,0.00874487215375988,-0.40767777412562,-0.901350388158366,0.566256697370282,-0.220545960525493
105.273552631579,90,3.49994199789467,-1.0273569407956,-0.000200412489124602,-0.344799913128604,-0.954327302631716,0.165040208211114,-0.411540531578137
106.276157894737,90,3.19175710611828,-1.00439229605123,-0.0262474403255659,-0.290867085526794,-1.12657542105975,0.107572349346694,-0.233335302628804
107.278763157895,90,2.34190126131528,-0.802144919308554,-0.205720721752553,-0.504875709110414,-0.848967547331846,-1.25458231576137,-0.0998005452693455
108.281368421052,90,2.00405706848696,-1.29933668420087,-1.61839717362479,-0.245303403720828,-0.901395709567123,1.11580956100475,-0.997096515899454
109.283973684211,90,2.96192357829001,-1.45904960526731,-0.189302749999665,-0.203761296056773,-0.666492982458919,-0.281689482449912,-0.0895149359638671
110.286578947368,89.9828157894781,3.66650448250001,-0.427265449554758,-0.058199027018099,-0.287084443865827,-0.72963131842627,-0.602979739474724,-0.275875744737454
111.289184210526,89,3.74622664000004,-1.15651478130409,0.20732079066052,-1.06051030880333,-1.13312729824267,-0.154584214031851,-0.153714740342563
112.291789473684,89,3.84255854855264,-1.70339853069047,0.211696192831572,-0.874048676331648,-1.07822260459665,0.714316972345872,-0.41616207103614
113.294394736842,89,3.97884769500006,-1.01444544999723,-0.124189305002902,-0.628261050053383,-0.915755299997868,0.277737525000374,-0.4699073499771
114.297,89,4.02071624276316,-1.01184552631647,-0.21369095835126,-0.211060196474446,-1.00696353618186,-0.095866613821162,-0.302591802614235
115.299605263158,89,3.84103434052624,-1.05469078948019,-0.0564835602280341,-0.29199080002063,-1.03127763158476,-0.0975537313142844,-0.283693131600698
116.302210526315,89,3.68055888118421,-1.2504567892763,-0.747527653316416,-0.723612310438852,-1.10612942632064,0.173853274713325,-0.164320864904589
117.304815789474,89,3.5640511365789,-1.61755715791688,-1.89878118955096,-0.155314578966924,-1.11377817366753,1.60700955255433,-1.20893767881512
118.307421052631,89,3.49430311105263,-1.28036902890668,-0.0706138003587871,-0.667431956505634,-0.433558466404388,-0.695110449441147,0.0958384988871616
119.310026315789,89,3.52901330526317,-0.20288704386043,0.276738003672386,-0.216432810531103,-0.742543526320995,-0.57007126316132,-0.228680815792031
120.312631578947,89,3.56430826381579,-1.05908667113832,0.172159214309946,-0.255630855049792,-1.5303480350475,-0.36578798818295,-0.896283797441832
121.315236842105,89,3.60087829078949,-1.67534564469413,0.0838611619422917,-0.946278473781096,-1.10735144735908,0.741696805251038,-0.412933921045382
122.317842105263,89,3.58006580750002,-1.09773219736867,0.0660238055262764,-0.343908531578877,-0.945101584638769,0.328804246040062,-0.472270449910545
123.320447368421,89,3.43709930999996,-0.972038792988061,-0.121203676517052,-0.262185666648588,-0.947653610511159,0.153132589465078,-0.28916630523983
124.323052631578,89,3.10410247532909,-1.05502853618701,-0.119778998681772,-0.464759763140801,-1.04566407895155,-0.0179799778991203,-0.494585234212596
125.325657894737,89,2.3760882351314,-1.22503519735909,0.0427228639436513,-0.386178315826109,-0.991861388420024,-0.492894337897382,-0.299901145262877
126.328263157895,89,1.84016792848674,-1.16757578947052,-1.09067490923916,-0.174010344739818,-0.980264614482301,1.47758740530668,-0.704487454232116
127.330868421052,89,1.69424123894734,-1.51018442102371,-0.0773681336787684,-0.224016326319947,-0.4842764315527,-0.395492157887334,0.0931203968533887
128.333473684211,89,1.94907777157962,-0.184480939473323,0.694140726324219,-0.00910463316297674,-1.20307818091841,-0.527282105923934,-0.476044041443574
129.336078947368,89,2.99872527368438,-1.76611881581326,0.471788092105434,-0.816962263133499,-1.35526837718298,0.583348886030322,-0.0510691828887268
130.338684210526,89,3.71421966500004,-1.46564317542571,-0.182801208791714,-0.316323812264806,-1.06327197807074,0.476671764037,-0.475541959666754
131.341289473684,89,3.70629798387216,-0.987716331571553,-0.0760814544829777,-0.379759994679774,-0.925833564910951,0.150779927018419,-0.293128189455578
132.343894736842,88.9255000000039,3.55293984089277,-0.960056750000226,0.0235588825032579,-0.229374737495018,-1.0137221333348,0.0328157683326091,-0.47721561499538
133.3465,88,3.39958169791352,-1.02525616666604,0.0832047281389115,-0.819532326346952,-0.96958133156197,-0.127328049470156,-0.438103026314065
134.349105263158,88,3.24622355493413,-1.27171026317473,-0.796624756454978,0.0992061855741683,-0.973456907931921,0.750308563623812,-1.02081208541659
135.351710526315,88,3.09286541195488,-1.93969821052128,-1.14794989475254,-0.275177705265221,-0.922088839471776,0.883121529202806,-0.0615417777897054
136.354315789474,88,2.93950726897549,-0.868461010519146,-0.101217321180209,-0.0978219401303208,-0.655616551971655,-0.556845029596817,-0.114197366043955
137.356921052631,88,2.78614912599624,-0.35599828248165,0.0751938114093093,-0.285718511377148,-1.74712123683529,-0.423267371053518,-0.473527665784743
138.359526315789,88,2.63279098301685,-1.8004619707546,0.23801948946858,-1.34550273160428,-1.23004076315317,1.02393518421017,-0.100907514741369
139.362131578947,88,2.4794328400376,-1.0359024210546,-0.110284981044338,-0.39011463157432,-0.965734605261704,0.238614157896498,-0.178689052632358
140.364736842105,88,2.32607469705821,-1.00804225833797,-0.128384739911562,-0.379322208763007,-0.921861082894572,0.095324053815822,-0.247742868421875
141.367342105263,88,2.17271655407896,-1.08078087718842,0.132773496464336,-0.446142128039631,-1.06303510539635,0.0293979252154718,-0.285579310578995
142.369947368421,88,2.01935841109957,-1.51877747901614,0.794537670617594,0.141743302706793,-1.10737375083179,0.996084404294039,-0.130583951048274
143.372552631578,88,1.86600026812032,-1.85010694735784,-0.887594757702448,-0.709416821035368,-0.838632971050602,0.595206621049037,0.0165888152661249
144.375157894737,88,1.71264212514093,-0.937276815771759,-0.112545002196199,-0.220914179816395,-0.610723684218932,-0.548724013158154,-0.259422010805734
145.377763157894,87.891631578952,2.09979593092086,0.0222931846288247,-0.195913157963975,-0.307855029835503,-1.89949394754435,-0.249270899885172,-0.389209973680904
146.380368421052,87.1109736842063,3.37116206743457,-1.73146286842495,0.362110999220414,-0.460586547352743,-1.19898094737335,0.899181185532053,-0.14094169762927
147.382973684211,88,4.16204189052633,-1.08265904210976,-0.0341577221115257,-0.396830431575141,-1.00261233052387,0.329115871582992,-0.472421362103935
148.385578947368,88,4.18401899789474,-0.990106381578767,-0.0643904034213387,-0.436958773689202,-0.994317434211496,-0.0793543967231251,-0.240631884201954
149.388184210527,88,3.77337457236768,-1.00628539474272,0.0164693947346889,-0.40204527631561,-0.905838815793258,0.0206467763008458,-0.278995894730532
150.390789473684,88,2.68542253618399,-1.19662369044456,0.199775488862036,0.0256787026731738,-1.26795647762831,0.458212541442471,0.272327976708767
151.393394736842,88,2.3960540000006,-1.89517799999834,-0.785795000040168,-0.708043000010914,-1.0164540000003,0.549614400000374,-0.0992836399880844
152.396,87.8733947368464,3.32998080263173,-1.13350839473069,-0.127862423030558,-0.289572381579658,-0.626551868418534,-0.657007266672055,0.0286618470116308
153.398605263158,87,3.83719212578939,-0.25887784265412,-0.0273787624154776,-0.755791318486083,-1.70396253949312,-0.391926922367215,-0.677775613172871
154.401210526315,87,3.70477804868419,-1.83775511512558,0.390055756576296,-0.643499881576489,-1.23375223683799,1.10869825324665,-0.0765435362179485
155.403815789474,86.8655789473723,3.86236164947401,-1.10883178947494,0.238897978931276,-0.325354421042819,-0.954632342105577,0.514604194737056,-0.231611389473712
156.406421052631,86,4.14391254328946,-0.861856453506344,0.0265368961291737,-0.440034324560076,-0.841605357253797,0.0887999194006394,-0.285992725041854
157.40902631579,86.1396315789434,3.98802246394729,-1.01865342807389,-0.092268221410591,-0.121042131563727,-0.977390765782911,-0.0141333950390558,-0.590352142153238
158.411631578947,87,3.81184720644736,-0.850450232389702,-1.39869809745104,-0.629303478933937,-1.40795325436978,1.04900661403412,0.262474564906474
159.414236842105,87,3.60685954736832,-1.66317513159066,-0.779477828912582,-0.70494799998949,-0.823355789445591,0.50929499999114,-0.22491010526889
160.416842105263,87,3.38214737578947,-1.0595037762932,-0.183002080256865,-0.331386235516133,-0.692033176315814,-0.393237652636635,-0.0367899192151571
161.419447368421,87.1500526315749,3.13001220421042,-0.444075389460095,0.774967968382312,0.0996367644724329,-1.62234745614061,-0.222811685964349,-0.391800850877833
162.422052631578,88,2.86252352644738,-1.9786288947368,-0.0189607477435227,-0.0336005141522328,-1.43205399472289,1.14016054210568,0.0917044431083072
163.424657894737,88,2.57413916157883,-0.954587505268438,-0.249007294746569,-0.198798852632672,-0.910742112280674,0.140338642807032,-0.100242404561385
164.427263157894,88,2.72157761184205,-0.90123780921277,-0.0314691914475852,-0.250572124998502,-0.998608826754864,-0.0178776102189712,-0.183678864034956
165.429868421053,88,3.44968626403535,-0.980955950731039,-0.249455821637064,-0.698106331578892,-1.05456307017625,-0.133438442105141,-0.290960605263037
166.43247368421,88,4.17779491622799,-1.48020150684182,-0.246905057020634,-0.651595442520899,-0.982005678924182,-0.776390310544282,-0.0566260736688751
167.435078947368,88,4.52494469052627,-1.20980589474669,-1.15799843169026,-0.264485326287984,-0.911250205263688,1.51927342105647,-0.854574031055811
168.437684210526,88.1682894736796,4.38038906368423,-1.63703464209998,-0.110485075154063,-0.372406441051795,-0.63467653508515,-0.323447915736336,-0.106704782453952
169.440289473684,89,4.33911206052634,-0.290723912273162,0.0208847122842789,-0.0749523122778337,-0.961898973680192,-0.572281631577608,-0.225241771928728
170.442894736842,89,4.42835395500006,-0.660762706655828,-0.00647193333314767,-0.367694893332558,-1.53694931249884,-0.531388412500966,-0.425338812498701
171.4455,89,4.53368730947371,-1.73674105262602,0.0640878280558597,-0.561803898242091,-1.04998829824553,0.480600646493053,-0.478914878951843
172.448105263158,89,4.55482764157888,-1.0646363728079,0.0419852254454353,-0.42154190788345,-0.95453644374902,0.351482599010933,-0.271166226965068
173.450710526316,89,4.4484913273684,-0.956992185961473,-0.0864733992938395,-0.265961180703499,-0.975242796490687,-0.119522102633631,-0.165298633862475
174.453315789474,89,4.27740966447352,-1.02279507543883,-0.0853346618409367,-0.523235502613976,-1.19666907631859,-0.03633465907881,-0.588269331580873
175.455921052631,89,4.02869337684206,-1.31539606466169,0.537768586466296,-0.335558569924691,-0.703039216842133,0.380771366316433,0.150669854732177
176.45852631579,88.8108684210565,3.8872247661842,-1.84497255262471,-0.999393140849941,-0.298743232910091,-0.939215034540909,1.4416322947278,-0.85497018288705
177.461131578947,88.1917368421009,3.87168939763158,-1.1669034868376,-0.101365188824046,-0.237960857891634,-0.558856907893503,-0.306210305264758,0.122550056576963
178.463736842105,89,4.01290093750018,-0.269482181573033,0.317417392140817,0.0173171126497196,-1.15805088816088,-0.488419777630255,-0.309609449338332
179.466342105263,89,4.33436125000003,-1.75972302632555,0.46569352632172,-0.870852368405934,-1.50403447367196,0.91703400000891,0.123525052619199
180.468947368421,89,4.25886384171025,-1.40444336183342,-0.0890823510522867,-0.483628911867782,-1.05299107631098,0.455935293084636,-0.658054103276455
181.471552631579,89.2021578947324,3.73632101763155,-0.988897882630708,-0.148241727465605,-0.637546840689522,-0.943358129322812,0.0846283066313432,-0.401820780449781
182.474157894737,90,3.14313023690757,-0.944879007913089,-0.147297815805576,-0.254373392096985,-0.916948679826347,0.156123342981482,-0.214050569298174
183.476763157894,90,2.47201885842105,-1.1678662103297,-0.429704248251083,-0.267242989625863,-1.05295452631492,-0.133973800004036,-0.544491599989661
184.479368421053,90,3.22798938618523,-1.03563765790194,0.212493710706416,0.32129572384024,-0.764097065850633,-0.97496913158447,0.010242205950163
185.48197368421,90,4.3080313563158,-1.47471957899271,-1.64727526316754,-0.108165372369304,-0.740760690774052,1.69433400800907,-0.594012359519848
186.484578947368,90,4.08656587973675,-1.69036743420422,-0.524056589437746,-0.554951274985312,-0.763356174976286,-0.012251281820763,-0.0244263026210335
187.487184210526,90.2177894736797,4.05458852210525,-0.782347073716843,-0.0267681673683713,-0.373695694758808,-0.644876197896902,-0.595303749482331,-0.163607308438019
188.489789473684,91,4.22100762771936,-0.113883426309208,0.463539111798494,-0.0505906890936267,-1.31786565792054,-0.521244732881175,-0.476253526349377
189.492394736842,91,4.38742673333347,-1.94957071428671,0.572237142859963,-0.129134374993805,-1.26920458333451,0.651501229162541,-0.00750482499797263
190.495,91.2256052631537,4.36443654223677,-1.3331359473699,0.048881275784406,-0.39035335395157,-1.07300723684198,0.306341657894994,-0.279914290789068
191.497605263158,92,4.14922230947352,-1.09506437895267,-0.0118763776759986,-0.475102816831805,-0.985490468419814,0.378087988420754,-0.389184675789363
192.500210526316,92,4.02744382078947,-0.96259467565785,-0.154830684210194,-0.307458307897468,-0.963533208949419,-0.0081146492305015,-0.472528145788246
193.502815789474,92,3.99853871105261,-1.03768753289496,-0.0456050045340447,-0.51252530528988,-1.05139573684288,0.113687448419296,-0.288663957894037
194.505421052631,92,3.97506694276315,-1.05421075989121,-0.348606536216146,-0.354283631558209,-0.945024342118292,-1.14227657884755,-0.0753245631633087
195.50802631579,92,3.95688469631578,-1.61999824560144,-1.87969456139987,-0.322692445616315,-0.883453457911585,1.21566699479788,-0.61030541064471
196.510631578947,92,3.9052710573684,-1.97569668421159,-0.763421555233806,-0.758409702641458,-0.934138432874995,0.406729890776122,-0.0127148380298733
197.513236842105,92,3.82178077508767,-0.806310330666423,-0.198304490943893,-0.656805670153992,-0.634303492104449,-0.651540855263229,-0.060792999738018
198.515842105263,92,3.738290492807,-0.13281507238114,0.622595783915903,-0.157266043300116,-1.3816467660655,-0.39324847368516,-0.666479235935688
199.518447368421,92,3.93801880263186,-1.91099763157702,0.51672663157862,-0.557265210530359,-1.32859008771948,0.690677666771611,0.104868315847996
200.521052631579,92,4.3994954466448,-1.32787901315811,-0.10563318552613,-0.44010565921291,-1.09479474006209,0.253086314029551,-0.348167014903638
201.523657894737,92.2542631578908,4.86097209065815,-0.977619789470976,-0.0837986142081849,-0.335875347370955,-0.945088052629297,0.0511162144707965,-0.187556252632096
202.526263157894,92.7431315789518,5.32244873467109,-0.963384964908334,0.026322561893047,-0.864314560526141,-0.961614564480891,-0.0135209608672086,-0.227876216667661
203.528868421053,92,4.57993552394642,-1.10992757894623,-0.183500672629,-0.163707163170857,-1.24824754947535,-0.115543818526683,-0.627792359999463
204.53147368421,92,2.7701302569078,-1.24691311924095,-0.162283848701545,0.205259049332656,-0.999465861797977,0.501837311762789,0.132034342843883
205.534078947368,92,2.59436472223744,-1.90374719736861,-0.627363609193403,-0.58758011318217,-0.933991228076305,0.668237949975998,-0.377478289764129
206.536684210526,91.7327105263203,3.83718668690791,-0.684980262262138,0.0599949621935513,-0.16220147981387,-0.659874228946688,-0.590731905260564,-0.118017009738513
207.539289473684,90.7301052631619,4.30767724210518,-0.0671852999751527,-0.100663868477509,-0.317465510538655,-1.29173578947902,-0.415094084205589,-0.176156642106096
208.541894736842,90,4.12154357500001,-1.94424825000368,0.45012822501423,-0.449538124989422,-1.25391612500237,0.8072104000152,0.0356576362550432
209.5445,90,3.99054170526312,-1.22801236839425,-0.0669070631167029,-0.38538284212004,-0.949575394738241,0.401846999986382,-0.15806948684248
210.547105263157,90,3.90544057052632,-1.02266444604067,-0.150366968537904,-0.23331547764967,-0.904825589476827,0.185599404382462,-0.254697901763053
211.549710526316,90,3.93707413947373,-1.00463014035037,-0.183252340353572,-0.246285515800321,-1.02410410526342,-0.100271384200241,-0.28147014034244
212.552315789473,90,4.06387864013157,-1.11098969076571,-0.126662518844762,-0.170267719786448,-1.30125679843491,-0.210942973689002,-0.418269337359995
213.554921052631,90,4.05410870684207,-1.14525033157071,-0.631501528159484,-0.388640233655902,-0.849517543853646,0.105385923165984,-0.3552826641528
214.55752631579,90,3.93531000921044,-1.59145125000416,-0.117632019082161,-0.533755973681752,-0.538601280696331,-0.413268219310999,-0.0730082934165614
215.560131578947,90,3.93460726526318,-0.322048705263958,0.0602757694706955,-0.0408581063182949,-0.878968578954961,-0.640817368422193,-0.340763789471691
216.562736842106,90,4.02621530815796,-1.12009226643667,0.262348716774902,-0.550859612360365,-1.33251383546901,-0.3922017118227,-0.458435095990718
217.565342105263,90,4.09011603868422,-1.334717192976,-0.104715884738056,-0.253995214899104,-1.0197374210584,0.4890739175256,-0.35558549299037
218.567947368421,90,4.13281198381582,-1.00646931184069,-0.240564058131975,-0.394028708950172,-0.900061918401242,0.0471591774702786,-0.165387458784425
219.570552631579,90,4.17148149473685,-1.00848607894788,-0.24896380789589,-0.282780157894136,-1.02954599999905,-0.171803578947688,-0.163335894736354
220.573157894737,90,4.20713413789476,-0.897551409238497,-0.447672823687418,-0.29416882638963,-1.02146353552979,-0.450796594087364,-0.410385200001703
221.575763157894,90,4.11335371210523,-1.24170788159253,-1.16704112771076,-0.336163858410364,-0.982548539486195,0.99122209744879,-0.177169910798136
222.578368421053,90,3.92463332342094,-1.71233019736627,-0.216134965782724,-0.499567914469719,-0.541268235852895,-0.424111645733689,-0.183096856110943
223.58097368421,90,3.90021375157896,-0.486511210516154,0.104911058247135,-0.0939778715773949,-0.830954221057578,-0.505836963150571,-0.207864673677321
224.583578947369,90,3.99376684868426,-0.0699261941910131,-0.565342937410918,-0.0980764454720882,-1.594922236834,-0.49649375220013,-0.575207780686177
225.586184210526,89.6832105263202,4.02658042368421,-1.76209992981804,0.16548561015692,-0.734708352611428,-1.13750763158658,0.820397547370933,-0.190357315781668
226.588789473684,89,4.0167047618421,-1.05405935526322,-0.0182761497900324,-0.270810986189685,-0.970623252631309,0.329927565348569,-0.355268548251273
227.591394736842,89,3.96564411,-0.903369599996524,-0.0351003800017257,-0.690000600027496,-0.952708600008375,0.0735217599896659,-0.219037599992087
228.594,89,3.8862528122368,-1.02610719869372,-0.202293513015751,-0.31776653815106,-1.29910817614373,-0.0811552807372922,-0.332636754124197
229.596605263157,89,3.80842845,-1.1723530263013,-1.13227972383711,-0.0990419723792746,-1.32985549012474,0.79639322137623,0.171954868414536
230.599210526316,89,3.73165896499997,-1.87081830263674,-0.850372371112231,-0.262419234856891,-0.998435671053948,0.908260379000095,-0.0932204684901944
231.601815789473,89,3.79808589368421,-0.880450126330693,0.00290921788975047,-0.217848915795483,-0.557456326317298,-0.721217473679175,-0.124376379998356
232.604421052632,89,3.95884863460533,-0.153884347367081,0.695153771049971,0.0986840236982588,-1.22171825439114,-0.378616984211601,-0.167807329825156
233.607026315789,89,4.14361561894736,-1.78339601577857,0.387629273161173,-0.539686811585996,-1.29879632895036,0.278136725163224,-0.0954185313041776
234.609631578947,89,4.14029637565785,-1.27759256577302,-0.102238675217546,-0.31961811405405,-1.01347733114009,0.339460096491103,-0.279893579386522
235.612236842106,89,4.00718548789463,-1.03221193984963,-0.14056003335313,-0.215849685715452,-0.907309635087897,0.229733059648682,-0.238463670174832
236.614842105263,89,3.94402521249999,-0.932672181147207,-0.0925837786036672,-0.463223153533367,-1.06624618421385,0.00383980655208522,-0.287691821050909
237.617447368421,89,3.92449947499999,-0.88517920630646,-0.453755302129772,-0.437790140008895,-1.02361111317015,-0.583049031135256,-0.291730940226088
238.620052631579,89,3.91872202381579,-1.16847362280717,-1.04175246491215,-0.158510423813969,-0.693723227192132,0.420950568428916,-0.108480125774046
239.622657894737,89,3.92133381052632,-1.75158723681521,-0.0661348039454961,-0.307379921055961,-0.53675045613624,-0.306543912295369,-0.133993754394217
240.625263157895,89,3.91004459039473,-0.247226896044805,-0.013574348438278,-0.192626952589473,-0.873883719475928,-0.567887809475934,-0.229875344740873
241.627868421053,89,3.89045869657893,-1.40963824562265,0.306654121930664,-0.585772789477506,-1.22128344733047,-0.469535904612675,-0.330370714433503
242.63047368421,89,3.77386295026312,-1.34470056140465,0.0609427000036812,-0.375083908772006,-1.03166771052649,0.397669620613858,-0.412837525439814
243.633078947369,89,3.60064283894726,-1.00264628210668,-0.0614471437912588,-0.650308886320225,-0.954214007017449,0.171576459652494,-0.20843626315454
244.635684210526,88.6337105263201,3.60299701315791,-1.02094542368555,-0.151753863158474,-0.267024950001334,-1.03203213596147,-0.0427456956123659,-0.209286877198679
245.638289473684,88,3.70556353157901,-0.979925753680482,0.100801998970087,-0.163496342113485,-0.943459429831955,-0.33666692632882,-0.25897594824467
246.640894736842,88,3.80640225250001,-1.09348883335022,-0.733882283314726,0.124601343327964,-0.762512856249815,0.31786641627006,-0.184915375009742
247.6435,88,3.90627677578953,-1.9525320350893,-0.417764059656679,-0.532925361404814,-0.776963052616414,0.0133731505754336,-0.101481482313306
248.646105263158,88,3.91091735026315,-0.244571593416495,0.326543321720223,0.0247511279010513,-0.852125443418742,-0.563173466118831,-0.281647225657734
249.648710526316,87.6206842105303,3.86360440789471,-1.58284453949959,0.375789407913027,-0.483080986842256,-1.19532894736858,0.398538936834124,-0.0763132684241252
250.651315789473,87,3.88634275828948,-1.16138278947492,0.0788196460056089,-0.433666721931335,-1.0615974210274,0.481720892161868,-0.281293236842781
251.653921052632,87,3.94643390473687,-0.967207150876952,-0.0283915606498463,-0.522513380706313,-0.950690789473602,0.109933607881175,-0.288401515779082
252.656526315789,87,3.78867217736842,-1.02666627960526,-0.0310257146052656,-0.325945084210622,-0.983412831054841,0.0287774114227589,-0.349842246850017
253.659131578947,87,3.51738724526304,-1.03859469737198,-0.316810447363248,-0.342951946054201,-0.963036120983556,0.248361452531801,-0.0937746193394045
254.661736842105,87,3.61417441315789,-1.46249947374856,-1.70564224357971,-0.582730440802827,-1.17864159998638,1.83226186843072,-0.556803710522901
255.664342105263,87,3.89837290105275,-1.55985389473879,-0.0810085442113127,-0.246578863156108,-0.554101210512141,-0.311433001602776,0.0502073905283344
256.666947368421,87,3.92690271657886,-0.238921317368705,0.49786691894851,0.105468216840908,-1.04715863007318,-0.468054674063312,-0.314366443983468
257.669552631579,87,3.82825638473681,-1.97494841353383,0.476375289473629,-0.447965645112769,-1.22186913158094,-0.402853828958479,-0.363676413164086
258.672157894737,87,3.7331862976315,-1.40185357747568,0.0837119947326845,-0.925982569926606,-0.977029804606267,0.610318007897195,-0.353734932232847
259.674763157895,87,3.89942812631588,-1.04589157894787,-0.254273421056445,-0.20228789473397,-0.928851223683919,0.161507355263062,-0.255319447368367
260.677368421053,87,4.19030396526338,-0.947588384650094,0.0496643635134066,-0.245110429824536,-0.992748403570675,-0.0693496047191087,-0.350012136090924
261.67997368421,87,4.07005567842096,-1.07166721052375,-0.261112984213643,-0.0264158975195908,-1.19191676315274,-0.189357378285873,-0.419619615799929
262.682578947369,87,3.75705234131556,-1.27033503286851,-0.835787888234936,-0.135893576462892,-1.42002313158752,1.25432875437946,0.408339087729698
263.685184210526,87,3.78371039684215,-1.91786889473591,-0.735509165750859,-0.961887789466431,-0.767527152616491,0.570229413617813,-0.249238206307127
264.687789473684,87,3.96583865592118,-0.762356967333176,0.000700266957840261,-0.206370633329574,-0.62371479605483,-0.575913111860844,-0.00434325922507782
265.690394736842,87,3.91317158499997,-0.247226400006535,0.172774167476493,-0.69413084007794,-1.39852250000465,-0.511763849999028,-0.423685120003957
266.693,87,3.75560715486832,-1.58981422555145,-0.0924626318826123,-0.537882244356143,-1.28167017105243,1.19925732894466,0.013105373940659
267.695605263158,87,3.88540523105267,-1.11510926315449,0.0669771536793976,-0.201864894730684,-0.983347552625648,0.44426455263332,-0.461282926312681
268.698210526316,87,4.1404830490791,-0.977852507894717,-0.0699196423025673,-0.401995482894958,-0.991093430270339,-0.000453250316622868,-0.154239492093007
269.700815789473,87,4.03309854999997,-1.06290671053339,-0.215700394748983,-0.401372736860534,-1.05753726315981,0.0261262631695234,-0.525803947393629
270.703421052632,87,3.77154891499985,-1.17599782330962,-0.804414390977733,0.155617457895612,-0.916666441007479,0.33787193343965,-0.301905234655212
271.706026315789,87,3.73908924000001,-1.893680210518,-1.01581962091424,-0.492145251180145,-0.892521131582388,0.821643194710374,-0.42429550734112
272.708631578947,87,3.80166684750003,-0.927678093869663,-0.0280096393856169,-0.21514921842352,-0.522721853508831,-0.635931033806502,0.0238929838183304
273.711236842105,87,3.83894589078948,-0.399918065522957,0.259029731015208,-0.329651108918365,-1.63498296052311,-0.49494555657798,-0.474785500000683
274.713842105263,87.4444473684171,3.86599116776317,-1.9724232730264,0.496121430921634,-0.841159263133996,-1.29048078946597,1.02889479602889,-0.116858427634509
275.716447368421,88,3.80737210947368,-1.10200915788362,-0.0205596737034268,-0.319119094752868,-0.982708515788792,0.353413336844391,-0.21842367368354
276.719052631579,88,3.71497200842101,-0.919681705260475,-0.230261118163985,-0.149982753946488,-0.934523836843054,0.0291232767055524,-0.546981127639523
277.721657894737,88,3.69148554684211,-1.06132763158014,-0.0637402505250948,-0.311633186840947,-1.05396452631675,-0.0540657247617108,-0.324392331577589
278.724263157895,88,3.69448333657895,-1.19249043290368,-0.544991406582097,-1.1248599079129,-1.02444167987366,-0.941556406091484,-0.229885678078238
279.726868421053,88.4574736842069,3.85721543789492,-1.56637105263894,-1.71472710527627,-0.382780657900346,-1.08322631578143,1.6187015788955,-0.589290157852295
280.72947368421,89,4.07975570731587,-0.882383337807638,-0.059215892490116,-0.753316046421509,-0.50437640524663,-0.388322748682797,0.0561587306917553
281.732078947369,89,4.30229597673702,-0.196991212279477,0.722385942138698,0.00100690262339419,-1.04409291578872,-0.574820405264692,-0.376076173682895
282.734684210526,89,4.52483624615797,-1.2824972236414,0.41828805876603,-0.688111163126989,-1.17800223683848,-0.282284229003843,-0.424842460556205
283.737289473685,89,4.74737651557912,-1.46795666665348,-0.0697836501813526,-0.701991182494949,-1.1868319999988,0.242862915791007,-0.251478547365892
284.739894736842,89,4.21193788749977,-0.956324374996087,0.00579012500987666,-0.252173874994464,-0.945507812499076,0.173329087499509,-0.370522000013033
285.7425,89,3.41097158184153,-1.01500674590333,-0.115386765784089,-0.31773402062267,-1.04891947368399,0.0427980294734453,-0.219382910524596
286.745105263158,89,3.14610250789472,-1.0652515625015,-0.0890874713124062,-1.27945145255119,-0.911118382894354,-0.25281985408779,-0.53101021039108
287.747710526316,89,3.18384833263163,-1.18236864209584,-0.728710705241385,-0.0185589157992731,-0.803187080709008,0.490963301794892,-0.362840508774757
288.750315789473,88.5190789473727,3.26189613934212,-1.84076015789305,-0.0830455888146858,-0.280404933553277,-0.747792744073672,-0.0289934901382928,-0.118615262630521
289.752921052632,88,2.69913674605213,-0.392649736834363,-0.00522793683875474,-0.182551684207613,-0.735485381581964,-0.518400592106764,-0.22365755263273
290.755526315789,88,1.92681487276302,-0.88764096710166,0.0463349605202597,-0.112282676046581,-1.5882154604971,-0.463996954608315,-0.587563867079291
291.758131578948,88,2.45651692684268,-1.74848905261176,0.167505341041087,-0.603690110581904,-1.13467310525262,0.719399110498453,-0.435350136829241
292.760736842105,88,3.40018403960539,-1.06060581575142,-0.0244521729184172,-0.381787700028377,-0.933687414802504,0.291208614144114,-0.394376949342598
293.763342105263,88,3.00532748815744,-0.885307472806504,0.0128043892163254,-0.426115649097909,-0.953884603947665,-0.111032466581765,-0.245087197361886
294.765947368421,88,2.19690179934203,-1.07211934210398,-0.145903971500296,-0.332294342104913,-0.958227118495057,-0.05210388879267,-0.287184427719104
295.768552631579,88,2.53517247684247,-1.3563793894638,0.11290858417639,-0.495594852654891,-1.68829474400527,1.37724798263997,0.28765465273358
296.771157894736,88,3.21760076223688,-1.87406734539684,-1.39648172366904,-0.350055282893992,-1.07187275263158,1.37170936579675,-0.929652332909037
297.773763157895,88,3.53889351289484,-1.20609357894458,-0.0702657073713675,-0.237909371049344,-0.555905556317935,-0.476204202105699,0.175777779059577
298.776368421053,88,3.75494993407915,-0.22632375699159,0.173119017709727,-0.154992828014916,-1.18152860676225,-0.472522333756724,-0.941906714083268
299.778973684211,88,3.85705214473687,-1.7081386052343,0.367771268418348,-0.643706789474761,-1.27127052632212,0.256771789389692,-0.115983484230898
300.781578947369,88,3.92692871855269,-1.31589563157595,0.00988027776008329,-0.334819931572254,-1.04081527368154,0.448200626580158,-0.358856002628697
301.784184210526,87.4852105263199,3.94900389789474,-0.926350313162299,0.0940382592007763,-0.217687323685458,-0.846541221932526,0.306629680701603,-0.521120352627112
302.786789473685,87,3.95796718894738,-0.960867117763426,-0.104885002499661,-0.276003530265823,-1.09022634210508,-0.0717142507894343,-0.233674640789101
303.789394736842,87,3.81341315999993,-0.901088099992645,-0.973960000048822,-0.324347859988928,-0.912707000025248,-0.286992240028243,-0.430706000005911
304.792,87,3.62803645986827,-1.26221458881685,-0.585360386513563,-0.0828804217094883,-0.868140427637321,0.566106986869704,-0.322617828951793
305.794605263158,87,3.70014680157899,-1.65380031579223,-0.0887077404212205,-0.426388908424618,-0.654457094723788,-0.240968378965285,-0.000145436311468111
306.797210526316,87,3.83859656236853,-0.246662059861379,0.0442390535700296,-0.177826258929969,-0.873793246501459,-0.616085789469408,-0.254824292104823
307.799815789474,87,3.08217031684182,-1.3210486350897,0.368164775088693,-0.630423487718943,-1.21010121046247,0.0321637844143291,-0.198976347192945
308.802421052632,87,2.10249463605192,-1.44291440787948,-0.0572888922067619,-0.489338508728854,-1.06502002632615,0.539272498644389,-0.319054100035453
309.805026315789,87,2.2953102144738,-1.09933199996091,-0.119281093412597,-0.455577907898858,-0.881560614035323,0.169936114035094,-0.253649815789258
310.807631578948,87,2.77118176355296,-1.02464674013574,-0.103033558296862,-0.157898616442206,-1.0258427105268,0.000763073422974249,-0.175821626317613
311.810236842105,87,3.55746552000018,-0.957979344728301,-0.102329539511016,-0.432277173722353,-0.768213241994711,-0.0126883970791907,-0.407273020941814
312.812842105263,87,4.41621698000056,-1.01043986709276,-1.08525006594951,0.134782996108915,-0.745396350017315,0.188769604292439,-0.218578859168956
313.815447368421,87,4.38712773842101,-1.89642347368782,-0.196987632633663,-0.430959624562603,-0.646974364904398,-0.0424903000349276,-0.206787418228526
314.818052631579,87.548657894733,4.15774168026302,-0.291999437711537,0.166472764037116,-0.05821228929407,-0.816285127852841,-0.583904990350237,-0.244105369296646
315.820657894737,88,4.1677440831579,-1.53697099998227,0.56744029474499,-0.411195552624244,-1.31952168421409,-0.448921878963972,-0.130738455792044
316.823263157895,88,4.14992399131577,-1.5073202137929,-0.007992578464872,-0.752928638127775,-1.08273043859699,0.467306870611041,-0.431216184205668
317.825868421052,88,4.11498988192982,-1.07077489473801,-0.0585475836735125,-0.276790699978757,-0.925985208771557,0.227272656136189,-0.283739778951132
318.828473684211,88,4.08005577254384,-1.01233768618134,-0.17548777763118,-0.235659759204624,-1.04683138815958,-0.0114531145994316,-0.157753980926277
319.831078947369,88,3.97330671578936,-0.881066960516817,-0.433358671054546,-0.289951640778398,-0.865404126311168,-0.315807821043133,-0.466435254385886
320.833684210526,88,3.85200651802626,-1.20200332456142,-0.936862721053948,-0.444466753859533,-0.850395935264524,0.565877783699431,-0.18464347368301
321.836289473685,88,3.59682291473658,-1.32277719298774,-0.0226002491231804,-0.399695017544953,-0.489254473688015,-0.436774368417159,0.11813831578601
322.838894736842,88,3.42117627999993,-0.168304789998289,0.373381335009059,-0.107206771001623,-1.0573580874913,-0.706118137496858,-0.369844249994477
323.8415,88,3.26575909614021,-1.04650084915733,0.298160725447877,-0.494074852683015,-1.28727240351027,-0.289417637723208,-0.326689268422174
324.844105263158,88.5747105263117,3.11034191228064,-1.4342534999906,0.0247753943233124,-0.67624976403951,-1.04366243921129,0.450946142365451,-0.477284079991232
325.846710526316,89,3.37631134184239,-1.05584253684224,-0.213474421895967,-0.440864768839174,-0.957944078947202,0.159945671072773,-0.204460747367438
326.849315789474,88.4200789473725,3.7183350882896,-1.03660039473711,-0.196806544735078,-0.26388747368445,-1.0914884868419,-0.0900791957234793,-0.256235325658292
327.851921052632,88,3.75926648736841,-0.89771598684394,-0.144545066571275,-0.244614935085511,-0.878636518427478,-0.00694357186211687,-0.449730756584105
328.854526315789,88,3.7480222693421,-1.08188936186837,-0.867209281637155,-0.27397492106541,-0.781948679822974,-0.0591496335037996,-0.167491090179099
329.857131578948,88,3.71481320789471,-1.78550505259705,-0.217000052615836,-0.322025052635273,-0.679961800000061,-0.140424773684117,0.143980213684201
330.859736842105,88,3.6779540964035,-0.164876955789295,0.492114596314849,0.0258896028950952,-1.11152554605002,-0.488992453071731,-0.26598775789201
331.862342105263,88,3.64109498491225,-1.93896333333347,0.512876960529331,-0.598776213453031,-1.23779973685334,0.926694789522817,0.152076747385295
332.864947368421,88,3.90076825473692,-1.28863022631686,0.142279995789995,-0.245877478421487,-1.11106496402846,0.485202146934652,-0.305786629833154
333.867552631579,88,3.92798275710525,-0.940413056842936,-0.00850012799867497,-0.752374734751269,-0.949605263158608,0.212338898954803,-0.226277873685924
334.870157894737,88,3.9127882743421,-1.00682794539418,-0.0548059964500069,-0.479708368431105,-1.14339715788629,-0.00655122132081994,-0.330679210519731
335.872763157895,88.6033684210488,3.89965966105262,-1.5689661973354,0.037410986926581,-0.242319613161173,-0.867295147361702,-1.03694146096331,-0.434116512273816
336.875368421052,88.3940263157938,3.88683132671052,-1.18245309213857,-1.41177675441748,-0.681492614014577,-1.17804630593554,1.40871479444617,-0.540476684220514
337.877973684211,88,4.07123066210539,-1.38012750374939,-0.122265840297901,-0.304842321798741,-0.644408221048244,-0.393023610529808,-0.0180573978917187
338.880578947368,88,4.28296084157898,-0.263833707882945,0.228953243435361,-0.0296508188514383,-0.839950397387887,-0.545487978956032,-0.194682650008466
339.883184210526,88.6137894736803,3.89411689999973,-0.95490355266769,0.314808910592656,-0.344016131608313,-1.31302868421159,-0.416916150000097,-0.488218776318588
340.885789473685,89,3.42607068499953,-1.23262626645487,0.0452085216123024,-0.619919655309823,-1.1143090526314,0.41421702367287,-0.272981210500388
341.888394736842,89,3.74813208500022,-0.977189999996935,0.0530107999897957,-0.308695999992388,-0.931510499996566,0.239588750002011,-0.29170899999218
342.891000000001,89,4.16916112618462,-0.983516207240769,-0.153530201966658,-0.323533694700941,-0.984056742104654,-0.0417291007859419,-0.157584968423671
343.893605263158,89,3.98316437263145,-0.866500171021754,-0.122390725041106,-0.339404832365899,-0.802829121052496,-0.107254912631709,-0.386112126315374
344.896210526316,89,3.72510380394713,-1.19407330409063,-1.15107931549478,0.00280936202248305,-0.829550170396991,-0.036848216858935,-0.183596462084668
345.898815789474,89,3.8215991778948,-1.35245650526738,-0.017582216757369,-0.287739077892505,-0.630389094716768,-0.11529977371846,0.0139848034235377
346.901421052632,89,3.95789333736854,-0.524664986839396,0.013591284867815,-0.118320973684741,-0.724017576750558,-0.650257256581145,-0.304413192527433
347.904026315789,88.3653684210567,4.11538454315796,-0.615935037717977,0.117939596491377,-0.637704156385335,-1.44618564913428,-0.39858308420385,-0.713577284194051
348.906631578948,88,4.27511961368435,-1.67539882895654,0.108551600889964,-0.6805670465105,-1.27464188158427,0.78051670001772,-0.215836603939784
349.909236842105,88,4.29539755263158,-1.06404326315821,0.0893301642111028,-0.320949578947048,-1.01830421403442,0.255631505263936,-0.188949329824434
350.911842105264,88.6424473684174,4.17000401947357,-0.927212121930568,-0.102937160353122,-0.326369778963606,-0.967853951754301,-0.0798867988596352,-0.332887796491757
351.914447368421,89,4.03190517052627,-1.15956289473327,-0.0304467263028472,-0.114216226349575,-1.2816950409209,-0.10224745614197,-0.84977274565199
352.917052631579,89,3.89380632157884,-1.35872010528446,0.388663787798704,-0.187434211381095,-0.952756615778559,0.334173688151831,-0.125927492117336
353.919657894737,89,4.10744941842112,-1.97173868421181,-0.322772657882872,-0.427580447379272,-0.907430319283308,0.369092099969099,0.0109105901765622
354.922263157895,89,4.02772041249992,-0.446588377640461,0.0253623031089308,-0.158350400447098,-0.955381410563825,-0.515919936168761,-0.538987406573766
355.924868421052,88.3445263157937,3.92075746999997,-1.18422941054658,0.327901637696607,-0.592394158691772,-1.25790873683716,0.0362170829498426,-0.251483027735246
356.927473684211,88,3.97142585763162,-1.43299503289562,-0.0324663276310274,-0.420677368420157,-1.05926039473909,0.570213605253791,-0.424675157902821
357.930078947368,87.339315789478,4.03438612614036,-1.02177,-0.167451210532605,-0.349622284204282,-0.869265684210529,0.209368294736827,-0.234514857894716
358.932684210527,87,4.09734639464916,-0.95405257280418,-0.147091773111849,-0.216214132012455,-0.994487390348159,0.0156708708077804,-0.347049400885153
359.935289473684,87,3.71465972631572,-0.952654184195367,-0.448150134291504,-0.188076206571737,-0.853183738147956,-0.800024280258599,-0.563365123680007
360.937894736842,87,3.30122541999975,-1.96798987503359,0.783492024954953,1.58155993759753,-1.3945810499709,0.858150354970647,0.0949335500090608
361.940500000001,87.6711052631545,3.06809869342082,-1.60071769589256,-1.64090203495262,-0.648169491193834,-0.774890157897021,0.824921315798009,-0.240909052632631
362.943105263158,88,2.84634747434198,-1.54544592106388,-1.90648793419421,-0.812882486322308,-0.897645265775936,1.62129376311655,-0.551298094713692
363.945710526316,88.6763157894702,3.31159888736893,-1.3059302105138,-1.97351042103694,-0.304159473685766,-0.789472252617658,1.61712693286729,-0.636963092083002
364.948315789474,89,3.48742285723693,-1.47843180263254,-0.693693123643906,0.352182581578793,-1.09805098683194,1.1498844723564,-0.308431230259618
365.950921052632,89.681526315786,3.64537830342121,-0.797964582406917,-0.451814694551334,-1.33510992339091,-0.92869032292121,-1.32255782444684,-1.22355055791072
366.95352631579,90.6841315789434,3.56387059565785,-1.23226631578897,-0.125233321053416,-0.443163052633469,-1.32908605262831,-0.281436782890839,-0.143793822371361
367.956131578948,91.6867368421017,3.47072355368412,-0.943300245612812,-0.0838392440537207,-0.489584045658812,-0.862123414480685,0.106619205266946,-0.245827892360472
368.958736842105,92.6893421052591,5.06531351842181,-1.27424067759051,0.303490116459652,-0.0275665406465953,-0.67158899471608,1.1059452017504,-0.210589183518162
369.961342105264,93,5.0515536407894,-1.88803877194192,0.82712206671469,-0.763510889501284,-1.45576870173439,0.659740916527416,-0.494243522071792
370.963947368421,93.6945526315749,4.97038773171049,-0.39354043684054,0.694712172367123,-0.16622561086718,-1.78890979473881,-0.499591262965847,-0.774801808426538
371.966552631579,94.6971578947332,4.70600252263135,-1.29344657895734,0.0650853881668968,-0.158302269738117,-0.563513921011151,-0.829806210522395,-0.0458977782975677
372.969157894737,95,4.43529408855253,-1.90109082231803,-1.70942423032094,-0.78260034210878,-0.532658760527681,1.17764165395427,0.232734381467357
373.971763157895,95.702368421049,5.37506303131658,-1.79252515776316,-0.673364473649597,0.946438547026841,-0.9445320244821,1.48308061580143,0.466740076328632
374.974368421053,96.7049736842064,6.34991116776348,-1.18507609539736,-0.405595038135716,-0.0825263571794289,-1.49514441228374,-0.650411245169537,-0.338213499156814
375.976973684211,97.7075789473647,5.37125847789395,-1.03878138946906,-0.0361676273547184,0.0471038109170138,-1.02090178105444,0.0827397535266806,-0.339459147471089
376.979578947368,98,5.34374061289473,-1.47617039474049,0.230814828949734,-0.23913,-0.624885279589709,1.27275615130829,-0.185213762141368
377.982184210527,98.7127894736805,5.33695297526315,-1.75250336839726,0.37595954232625,-0.854928305221561,-1.449040596495,0.631970438594037,-0.197170192986644
378.984789473684,99,5.47090858342109,-0.360944847373516,0.268368193424935,-0.271463881574781,-1.24703505263984,-0.656333532885867,-0.260146172368921
379.987394736842,99.7179999999962,5.60703230000009,-1.94769099999439,-0.658980469969761,-0.693206449995799,-0.208819533336302,-0.153761816681973,0.0732514333344814
380.99,100,5.51290881822366,-1.34524957894985,-1.99359805264597,-0.515430366915742,-0.52643821314762,0.861422879810654,-0.497655836882751
381.992605263158,100.723210526312,5.41646571144731,-1.42072157895059,-0.402605578971463,-0.367791721089469,-1.78919680694362,-0.251124554463351,-0.362441070190049
382.995210526316,101,5.32002260467095,-1.17439601578868,-0.199593455798409,-0.534433034735122,-1.27252822807346,0.0838681832882389,-0.294544217543195
383.997815789474,101,5.22357949789468,-0.89813633421472,0.0204793190372762,-0.32879884455261,-0.860932036842961,0.333949155268339,-0.314181273686749
385.000421052632,101.731026315786,5.12713639111832,-1.43088317107061,0.458156110507981,-0.286693432892706,-0.700847172387522,1.50912752631231,-0.0793205451268568
386.00302631579,102,5.03069328434205,-1.93040494736491,1.01550626315149,-0.712070736827016,-1.5140789473754,0.455383035557454,-0.280456736846457
387.005631578948,102,4.93425017756569,-0.195096947374501,0.843739243487016,-0.0669835263521199,-2.02083,-0.789298118468857,-0.268881539457771
388.008236842105,102,4.83780707078942,-0.250619142087881,0.308881815017837,-0.0152548368007623,-0.89196799567434,-0.773746192981854,-0.250481942081002
389.010842105264,102.741447368418,4.74136396401306,-1.80363375001907,-0.071831412657713,-0.046520331732746,-0.211698398245627,-0.913691204384292,-0.0388998657898114
390.013447368421,103,4.6449208572368,-1.62996143157796,-3.97543220000589,-0.271732583154657,-0.810635715784537,1.60492936841339,-0.799256233661149
391.016052631579,103,4.54847775046044,-1.61877072370648,0.397071509310411,-0.451947763019702,-1.49036310526131,1.37681487104992,-0.19154801710267
392.018657894737,103.749263157891,4.45690800000006,-1.34760694444449,-0.824716024854686,-0.629365865496824,-1.24436677631381,-0.534474157914586,-0.958452723695467
393.021263157895,104,4.59019435157906,-1.10717534210648,-0.253709060963421,-0.291549946400602,-1.21573786842213,-0.368955664488242,-0.346199613163725
394.023868421053,104,4.72101428631584,-1.09252652631796,-0.103535236840119,-0.462402789468993,-0.984419042102192,0.0726829294767852,-0.262010226313663
395.026473684211,104,4.8424225289472,-1.20528971929778,-0.040002769955431,-0.159282422198794,-1.02487664473725,0.162125330525614,-0.15159586947345
396.029078947368,104,4.64873924421045,-1.15334993421062,0.00169841710598401,-0.643120707894063,-0.909976882455549,0.744194994740425,-0.22901689824653
397.031684210527,104,4.45541291289459,-1.37527953948514,0.306523243422689,-0.321929688591619,-0.997667713033519,1.12959158521744,-0.383943770670626
398.034289473684,104.764894736838,4.29065101210537,-1.87740081286356,0.800722778360799,-1.186487310529,-1.48585452629553,0.644432273749612,-0.248936063150942
399.036894736842,105,4.60971008500024,-1.21051870000533,0.604611584995638,-0.668141770001295,-1.78798450000245,-0.0501438755029598,-1.21702127999964
400.0395,105,4.88864642105244,-0.195583454292695,0.397284927626986,-0.0224027545565452,-1.34752101318341,-1.07243896712718,-0.336422151328812
401.042105263158,105,4.2523078996048,-0.418652215774315,0.151897476223836,-0.182648619723665,-0.905285757575233,-0.728746057893604,-0.202719963138209
402.044710526316,105,3.69788152657923,-1.19212441350434,-0.00321561127231497,-0.564604661659395,-0.550877368428492,-0.823622894729026,0.00684159999600201
403.047315789474,105,4.79723318460602,-1.82499257235584,-0.954201041396027,-0.819432208553619,-0.554620682522229,0.264359023964793,-0.0799856193606379
404.049921052631,105,5.83723509578947,-1.31254446713074,-2.0634333486968,-0.269433837508598,-0.639583205289874,1.06394505798427,-0.127506276275307
405.05252631579,105,5.78242997434183,-1.79445436839192,0.89796827909921,0.306652124043647,-1.23149553949096,0.803377275849167,0.0184616753949459
406.055131578948,105,5.36143101131533,-1.2758025350729,-0.59066138290275,-1.36904240495792,-1.50840517360127,-0.753312615844754,-0.984361763209
407.057736842105,105,4.95509638671042,-1.05595463816736,-0.0209913848811922,-0.387346348698101,-1.14968905702418,-0.632122160051604,-0.00179135527774209
408.060342105264,105,4.77775055473666,-1.07933395789742,-0.0642238404283663,-0.379979287366291,-1.00657089999562,0.115152221834303,-0.39413900001292
409.062947368421,105,4.70143017763236,-0.96281992927476,0.0670490150650541,-0.397567215813858,-0.8946595394737,0.324538196053431,-0.56663172421179
410.06555263158,105,5.95462861184178,-1.19825884209967,-0.05277235792813,-0.441499178931323,-0.818997511577413,0.515501528412305,-0.322913488416334
411.068157894737,105,5.63657715723667,-1.50422880260957,0.486629155911367,-0.153647153294383,-1.08192476645149,1.03223457828288,-0.0667820400639066
412.070763157895,105,5.33188168999987,-1.97237791666665,0.571175377192671,-0.791866982456194,-1.22795491229542,1.2141711403457,-0.198683788608174
413.073368421053,105,5.19634449749993,-1.20995423241698,0.51819250960966,-0.439239484997389,-1.78486859868059,-0.464247134215773,-0.381529019675795
414.075973684211,104.193421052635,5.06260126236832,-0.243698631486716,0.176768568403128,-0.766178431665076,-1.90618296841649,-0.36689909999797,-0.929483376839786
415.078578947368,104,4.94995354802626,-0.0410224073483656,0.213494051990533,-1.75598747607705,-2.01353067099296,-0.162886422473135,-0.666953039469157
416.081184210527,104,4.86066340631594,-0.261867239471495,0.878549599829374,-0.00139020311659284,-1.56387924996571,-0.959841569710122,-0.27231355792797
417.083789473684,104,5.01947137368424,-1.44592217104103,-0.134230294080206,-0.716210638141906,-0.528536210535321,-0.864023644751934,0.053708848669806
418.086394736843,104,5.09306260000006,-1.97643099999932,-0.730039433370749,-1.41355120001575,-0.410833200029653,0.278560460023193,0.242374400010333
419.089,104,5.18436868111852,-1.72895394079176,-2.08456751315718,-0.397694180921073,-0.279266776970538,0.903022617100597,-0.226796609203633
420.091605263158,104,5.45184621973706,-1.37683103510089,-1.62403365783172,-0.580983601704986,-0.486823794737862,0.927724743848499,0.283949780686108
421.094210526316,104,5.71932375835535,-1.80830176047875,-1.25346763150925,0.202112892079443,-0.954560434142713,-1.37268500006571,-1.3047193856022
422.096815789474,104,5.98680129697389,-1.08479631583088,-0.137145673660397,-0.106807736877928,-1.55474473680237,-0.471411447337268,-0.70171852635443
423.099421052631,104,6.083794647368,-1.14007428654975,-0.264820964695259,-0.434634714401996,-1.17866623687238,0.0526680024488488,-0.525729000014581
424.10202631579,104,4.67593633684108,-1.03379864803356,-0.0264295248013623,-1.05016894216523,-0.975458163157726,0.0823124034208525,-0.503155870262049
425.104631578948,104,3.49332472368502,-0.954214792098295,-0.15929228758341,-0.330606061874572,-0.79647793699941,0.243144237673706,-0.706825031592196
426.107236842106,104,4.19139866421101,-1.04843658418462,-0.0138851610432797,-0.648861394746528,-0.822017357894896,0.822584105257848,-0.255842347368165
427.109842105263,104.840447368417,4.8379857659211,-1.59363967099125,0.352852082250133,-0.180906938595196,-0.967775978947765,1.05920814912321,-0.591176181578979
428.112447368421,105,5.0769918215791,-1.9766706754386,0.951259481613219,-0.938382585857062,-1.24526149562069,1.2969124842211,-0.369964357359928
429.11505263158,105,5.31831044315818,-1.72609407894165,0.738481876304942,-0.790876244731681,-1.54853618420497,0.0125857052856726,-0.234819252629602
430.117657894737,104.151736842109,5.57702270526332,-1.35113051594632,0.754452652723233,-1.55485261040608,-1.68306302634223,-0.437229210590917,-0.785842668456091
431.120263157895,104,5.80709802447371,-0.236642201755343,0.531605178227523,-0.119433811405409,-1.67752978505254,-0.934884436397832,-0.253101305273005
432.122868421053,104,5.83213307789475,-0.438419131558606,0.15701460526361,-0.185612149984322,-0.980511336242487,-0.62508170176507,-0.609868651721416
433.125473684211,104,5.8530350236842,-1.00205407454771,0.0243826131184654,-0.282135767550238,-0.464592878952219,-0.802976699996505,-0.176382002633562
434.128078947369,104,5.84571600526315,-1.70956649119773,0.150450829674448,-0.280651978928012,-0.2220012657922,-0.520510285015473,0.219738179999245
435.130684210527,104,5.83280615986837,-1.98004844736852,-2.15617581578944,-0.392598755957213,-1.06869195920189,0.389076927635972,0.285508931573509
436.133289473684,103.136105263162,5.78343286368419,-1.44392298684499,-2.10127874343035,-0.448200952636694,-0.841211871036656,1.84041465791671,-0.372117415949629
437.135894736843,103,5.54624179499869,-1.4480938541791,-0.590991302173811,0.0394079124656463,-1.090493875,0.590619,-0.4007175
438.1385,103,4.44366838026351,-0.827074733303938,-0.51607271571319,-1.01569797189681,-0.949739794710713,-1.32627946109357,-1.20261392633746
439.141105263158,103,5.211889598027,-1.18055054386144,-0.559425371932755,-0.0578797030918833,-1.51996680922144,-0.285161518468452,-0.806061419729778
440.143710526316,103,5.89582780000008,-1.09794067896234,0.0556220831738826,-0.226890415765556,-1.20286947368833,-0.0781707002579089,-0.1810857605339
441.146315789474,103,6.08651329500016,-1.04462372631668,-0.171160050477746,-0.452110290523034,-1.00241612631528,0.0290380021055198,-0.413785755260337
442.148921052632,103,6.21230461473675,-0.998635789476786,-0.0890377157824524,-0.231979210527747,-0.912061105252378,0.232796210517062,-0.20352347369227
443.15152631579,103,5.97360435368402,-1.02236419738238,-0.170456506601674,-0.395703721202948,-0.899652901319492,0.224311954006176,-0.493430642027875
444.154131578947,103,5.8116941736843,-1.150280684211,0.289389989475553,-0.322231015788816,-0.84668476666073,1.13867758770845,-0.23254516122744
445.156736842106,103,6.03550359276321,-1.86917507018072,0.356414686860136,-0.181937623003365,-1.19965432894746,1.00995933290013,-0.184143150003915
446.159342105264,103.889947368418,6.10744553342114,-1.97595080701759,0.90330737543044,-0.883165961396151,-1.37954344738397,1.45424642107372,-0.34388277893389
447.161947368421,104,6.09487735631547,-1.49594216773688,0.775639269699833,-0.821724921065575,-1.76284539473688,-0.119571088815502,-0.585761782892885
448.16455263158,104,5.65190629894685,-0.997012739476401,-0.0733804394701366,-1.11558891840945,-1.84428410526135,-0.0504588011646008,-0.649528786843046
449.167157894737,104,5.2915869814474,-0.194733502263138,1.06897290560604,-0.113512751492351,-1.68477326578992,-0.72156450763133,-0.629344273684861
450.169763157895,104,5.33674933552637,-0.404774499993264,0.224552131576334,-0.0185068642099176,-0.723940361406995,-0.869552599999218,0.107769761759648
451.172368421053,103.097026315793,5.45865602236874,-0.68585301308745,0.122309673431937,-0.205306481567943,-0.505759521056736,-0.782318784207549,-0.077727183070152
452.174973684211,103,5.88123318368436,-1.277435859614,0.0242465582583564,-0.19144778684593,-0.444312210524425,-0.80595300000959,0.0577492999961131
453.177578947369,103,6.01421373276324,-1.89570279605266,-0.329094324934101,-0.624490367105244,-0.338409399548552,-0.0745599469529645,0.131244195612004
454.180184210527,103,5.96467685982365,-1.98350305263162,-1.42553757897616,-0.32957686313958,-0.757778635084427,0.991797926306109,-0.101489017530597
455.182789473684,103.913394736838,5.09654435657845,-1.63184592327452,-2.02015556139467,-0.479529401333625,-1.27139816982912,1.88683539482866,-1.37761526331633
456.185394736843,104,4.22841185333246,-1.07794067497755,-1.50295747493702,-1.33956188010534,-0.73238307495412,0.20068128741104,-0.39930901753712
457.188,104.918605263154,3.8639388272378,-1.44741544737452,-1.06971161192149,0.345559263084321,-1.96956027649096,1.9555576581406,0.738902289470303
458.190605263158,105,5.64511219447541,-1.14076564561347,-0.880430199992871,-0.554598150866612,-0.543535815851438,-1.97876948936758,-0.0827560705947815
459.193210526316,105,6.96664226368393,-1.40048811708681,-0.432629169074864,-0.187076648618015,-1.85222547363644,-0.412692494744236,-1.35860384466202
460.195815789474,105.926421052628,6.51723556315794,-1.13382347684231,-0.0929209404732451,-0.649212267367638,-1.35617089474042,-0.233654596711528,-0.50017201919743
461.198421052632,106,6.56577168394739,-1.05027642960491,0.0567798249229783,-0.782744165124598,-1.25901090658535,0.0959924642790171,-0.2419182802567
462.20102631579,106,6.49082154263108,-0.977304328947119,-0.00826854539398667,-0.689502723685027,-0.926151315768811,0.0147657122786782,-0.242543473680263
463.203631578947,106,5.93135777973661,-0.981231768417799,-0.139663428946751,-0.299516694079484,-0.996245677631248,0.0949310071713288,-0.196846654605888
464.206236842106,105.06315789474,5.55269176000026,-0.935935048680273,0.137723662440362,-0.266796311445321,-0.822991290788472,0.251842179601772,-0.465606715811892
465.208842105263,105,5.86119841250012,-0.91796655497065,-0.127763910848306,-0.519929134298958,-0.821412769715991,0.131454186816991,-0.269459461846358
466.211447368421,105,6.05298965684191,-1.18827778945581,0.170701926285268,-0.216149989480293,-0.849385631583262,0.918938105290839,-0.336174431590151
467.214052631579,104.055342105267,5.87611771280703,-1.62819131577848,0.20690909758092,-0.261439297144714,-1.10104215790346,1.05485683553522,-0.140861592102274
468.216657894737,104,5.92164267578951,-1.83982818423805,0.418771565813583,-0.505689600044284,-1.02693652630354,1.34757222109667,-0.249630720007212
469.219263157896,104,5.96716763877198,-1.97412515789491,0.631608402612427,-1.14419333419258,-1.09410097443671,1.18050714962337,-0.447944579245445
470.221868421053,104,6.00064584736842,-1.97571155789479,0.613870997923706,-0.847571776847163,-1.16542526315845,1.34699622102097,-0.029100912023988
471.224473684211,104,5.88622422170997,-1.97730417105271,1.03803587239021,-1.08831803947427,-1.54499839475339,0.217597307062579,-0.464743032750821
472.227078947369,104,5.40930996315756,-0.741134041354806,0.158336253759727,-0.698714625186896,-1.63847052633717,-0.362576155256513,-0.620858736871666
473.229684210527,104,5.07811902157912,-0.336277827064503,0.378250762773861,-0.0427364872699425,-1.82352766449491,-0.656143387814535,-0.51493984210326
474.232289473684,104,5.23017413578957,-0.347422605263419,0.311943110525798,-0.0518650221061373,-1.252025710522,-0.784473021046347,-0.29640987368349
475.234894736843,104,5.34919300000001,-0.700712450011002,0.0086850512468053,-0.204144187500161,-0.7670311,-0.78910035,-0.2945752
476.2375,103.031894736846,5.33089738052624,-0.956957068424647,0.0541869274334483,-0.370317228945635,-0.420139030012467,-0.872221726310835,-0.098414130963225
477.240105263159,103,5.21450994855251,-1.28408879934091,0.00428154095292096,-0.171017696547013,-0.369785510691874,-0.815073157071937,0.0721916677621979
478.242710526316,103,5.1233115418421,-1.98048442105212,-2.0266390525974,-0.565160273699091,-0.89549374526823,0.985089074757828,-0.492633641711418
479.245315789474,103,5.10987161828946,-1.25414057894512,-2.10820352631327,-0.29713873258852,-0.77026711940161,0.914300391749574,-0.156044271568569
480.247921052632,103,5.11338606315792,-0.960636786902014,-1.13500497614963,-1.390340173479,-1.24573851008819,0.433709592126579,-0.52208634821993
481.25052631579,103,5.27506702000047,-1.28822842107906,-0.718244098699982,-0.827838256929317,-1.56992151974042,-0.35608917329934,-0.660904073030551
482.253131578947,103,5.75435244000024,-1.15193052631567,-0.143240447367367,-0.37039495526552,-1.40354957894898,-0.313613557887619,-0.127295926316172
483.255736842106,103,6.06743734171037,-0.880216814474969,-0.199267410525524,-0.478839490790573,-0.932828222360041,-0.147977298958607,-0.402596705829211
484.258342105263,103,5.90171170473677,-0.912737794707534,0.0794433952964358,-0.67724874731077,-1.00555317105257,0.0700202861817081,-0.242098642106311
485.260947368422,103,5.78072808026316,-1.17254306578939,0.0471463302205258,-0.464070393428095,-0.980528259475481,0.858387774743649,-0.230522191569857
486.263552631579,103,5.78520972578948,-1.70573710522251,0.336034742115278,-0.0491532526175127,-1.0319214526308,1.10000631579031,-0.0849161494738047
487.266157894737,103,5.66316036421013,-1.96740211622854,0.725108581141529,-0.703523072369647,-1.09455692105267,1.42781178947463,-0.0593384847347961
488.268763157896,103,5.26703607789447,-1.62833416375837,0.857134356451899,-1.38822703279723,-1.56578047367767,0.139000921115667,-1.18233074208339
489.271368421053,103,5.06333676657878,-0.251758607896791,-0.464400994776708,-1.24614989344791,-1.9410615394811,-0.614072373639902,-0.666307263159133
490.27397368421,102.995421052636,4.93745294210529,-0.242050989475746,0.286670105288871,-0.196727848408441,-0.852246818460693,-0.789216689474607,-0.337725615806083
491.276578947369,102,5.01583662157901,-0.873806907897939,0.0443970134780145,-0.215314530701459,-0.467133380920145,-0.840509953287682,-0.0837420513178081
492.279184210527,102,5.12396599789496,-1.73396263156151,-0.0782430710150367,-0.510397513178995,-0.358504116085421,-0.662929479489756,0.159250549135532
493.281789473685,102,5.3081846889475,-1.95974612719753,-1.3886253437078,-0.714429058950087,-0.806244333690814,1.40865965850376,-0.623373313137651
494.284394736843,102,5.36069620999968,-1.44751077777733,-1.5632390899851,0.137644866675912,-0.681875200098837,0.784268800212317,-0.174412400271173
495.287,102,5.19438291907902,-1.10581373685424,-1.29106056056204,-0.633988868818413,-1.10547969410609,-0.318256412823895,-0.375022389428962
496.289605263159,102,5.29783674315801,-1.22258768421369,-0.431375767896866,-0.795278471584516,-1.6780003816522,-0.128463132808573,-0.880164865881398
497.292210526316,102,5.50419061359679,-1.08671089474408,-0.383018701739641,-0.497673324572182,-1.29838881577493,-0.538526519829517,-0.170783361843164
498.294815789474,102,5.9575854236847,-1.12550642105876,-0.192317821062335,-0.876235789496143,-1.04112580526296,0.097315515781937,-0.494624113182193
499.297421052632,102,6.41098023377221,-1.07672,0.138910172387757,-0.244947539465592,-1.03825475000773,0.142853643423643,-0.191340294753399
500.30002631579,102,6.24162381578778,-1.00755468156318,-0.160446566080994,-0.217102559717376,-0.786347576845316,0.336153227384681,-0.681628647361868
501.302631578948,102,4.99138799315765,-1.13828786842711,0.375124947367312,-0.359553971046908,-0.856371651309115,1.14567759997603,-0.221223355262873
502.305236842106,102,4.5625336178943,-1.63415776316085,0.445052289474135,-0.700428500005096,-0.961576482456172,1.24313552632756,-0.183519105282658
503.307842105263,102,4.38449277605284,-1.97565906578951,0.359547139478877,-0.813936226327189,-1.17963051751779,1.16763804561863,-0.458100698673143
504.310447368422,102,4.76565321894774,-1.39150471928296,0.388395819268501,-0.142184114888314,-1.6273933815771,-0.660795421057472,-0.420320328941418
505.313052631579,102,5.07270034473691,-0.385124849377511,0.673635839722448,-0.0375061395641345,-1.79059712497818,-0.025413157301522,-0.582956451349839
506.315657894737,102.046263157891,5.21845909789487,-0.347259347363299,0.212720715814369,0.00543486212651769,-1.15479499999653,-0.674539668413156,-0.211517742104247
507.318263157895,103,5.39366555039485,-0.444348703946034,0.124109824561774,-0.283794582238235,-0.598766611842873,-0.895846342106454,-0.0484497861766923
508.320868421053,103,5.63143840157916,-1.69033134210367,-0.00396290526258996,-0.355063107892382,-0.227217134869638,-0.623480071068607,0.162159036186079
509.323473684211,103,5.67906483618375,-1.98297888157891,-0.712652806966764,-0.804781322791257,-0.64134020927489,0.400644657280062,0.502893088722568
510.326078947369,103,5.33218848026286,-1.98325010526282,-1.98457789477498,-0.309714220981294,-1.04942867026756,0.945238631461972,-0.1776473718824
511.328684210526,103.05928947368,5.24164238526332,-1.22032977368057,-2.14781116444504,-0.263750948933101,-0.780665309290283,0.805594750143612,0.0639818710068252
512.331289473685,104,5.67051681263193,-1.30004842105296,-1.81853736842066,0.0326659157900287,-0.682154368482284,0.0182113526725314,-0.21354292104832
513.333894736843,103.935500000003,5.79253352499939,-1.47703399983441,0.322129799700237,0.927772549743166,-1.72713453750779,1.05515355000571,1.41138372501999
514.3365,103,5.30712218684173,-1.25398091579274,-1.16805392631915,-0.211991157888095,-0.908936813216289,-1.16530192889272,-0.72798826577712
515.339105263159,103,5.0307010065791,-1.0742558815768,-0.226936642748216,-0.455061963154955,-1.52596268420651,-0.570732186838931,-0.560585857894342
516.341710526316,103,5.15848304736851,-1.18330566666898,-0.134319274748301,-0.0323722407023075,-1.12774782456089,-0.314368831670432,-0.364012166662502
517.344315789474,103,5.35750706092144,-0.952197890352585,-0.256796912256454,-0.378628372804581,-1.00407512720346,0.084043675437985,-0.278843473676439
518.346921052632,103,5.69117910552655,-1.00296522631126,-0.0426851394862586,-0.211104547380417,-0.956336768422607,0.112509623129239,-0.446500431563744
519.34952631579,103,5.65074479999917,-0.949886156587564,0.0131470506541525,-0.179217628956804,-1.04052140461291,0.0512115749898148,-0.418873667087493
520.352131578948,103,4.91924399999952,-1.02898145613466,-0.0396547319328659,-0.424470736851998,-0.867676809210526,0.374404696052772,-0.392201846052636
521.354736842106,103,4.5612371684214,-1.35787781568629,0.236021297936776,-0.362964627574684,-1.08204353727636,0.926217171939117,-0.268454018955261
522.357342105263,103,4.87765938947388,-1.84066719296062,0.318470968392598,-0.108924905256524,-1.10065631580948,1.2381513683846,-0.362387894737026
523.359947368422,103,5.26741513131634,-1.97569330701743,0.989809881591892,-1.32664426317756,-1.19300965789121,1.6144767807139,-0.361482568425034
524.362552631579,102.906842105267,5.78663431894767,-1.70803542103959,1.12723256317012,-0.542228263137391,-1.46951138158557,0.149569812325799,-0.672973189482903
525.365157894737,102,5.86009023464842,-0.74508498421696,0.283189031594606,-0.177794845004385,-1.99555204385827,-0.241535289552405,-0.539741485089466
526.367763157895,102,5.16405826684173,-0.227180663166174,0.828951263244635,0.119056132080777,-1.4126181052909,-0.773627578969447,-0.181525684197316
527.370368421053,102,4.46802629903441,-0.318169779603754,0.0809585049432767,-0.210654647330626,-0.949203330619064,-0.722497325656291,-0.236279669422264
528.372973684211,102,4.61326050105341,-0.301630438594784,0.191350061405171,-0.231313677190518,-0.583953536190729,-0.857906798030932,-0.119781211704833
529.375578947369,102,6.16298244329092,-1.15018145685255,0.0286177531010453,-0.286575176003972,-0.512086407902671,-0.726520703535943,-0.0254630693367449
530.378184210527,102,7.26395351052682,-1.35046863157962,0.116132607018695,-0.243378842105329,-0.383037280709847,-0.887347792983709,-0.0293163765925154
531.380789473685,102,7.63213021526349,-1.98393,-0.472938477632479,-0.638784873026764,-0.0252914243121831,0.374254312195327,-0.0400043429846328
532.383394736842,102,8.00030692000015,-1.97797249999972,-1.28409324991425,-0.894565500002768,-1.41015375,0.72416425,0.2896623
533.386,102,7.70217521144621,-1.64966035524615,-2.15760832894732,-0.101521059610426,-0.344474768850648,1.54800664538955,-0.740859409203855
534.388605263159,102.119210526313,6.351269892893,-1.23007192982664,-1.83786231577576,-0.183973883152898,-0.471659354358887,0.632756796502175,0.0132916537033967
535.391210526316,103,5.59261429473697,-1.19196747631074,-0.30547695658476,-1.04374423031191,-1.42447122900962,1.2360469185742,-0.195706242086536
536.393815789475,103,5.74950196631599,-0.983951605287188,-0.97975875966309,-0.912354267546889,-0.596876589344649,-0.942773513301908,-0.565568981602093
537.396421052632,103,5.87955112789481,-1.03695184210567,-0.196612348242706,-0.283223605264906,-1.7921457236624,-0.508486654609785,-0.917651967126392
538.39902631579,103,5.74476261815733,-1.06971404784812,-0.265388570044341,-0.210812746416683,-1.31811852631983,-0.3358354578944,-0.58291265790786
539.401631578948,103,5.27443547618386,-1.1067164539582,-0.280618571715188,-0.573860155214049,-1.28328976973665,-0.332829967111021,-0.197068099081232
540.404236842106,103,5.00609120000003,-1.10066742105322,-0.223440973687198,-0.454449026313442,-1.17625617544641,-0.0114627438773483,-0.262347707016088
541.406842105263,103,5.03352248000002,-1.07288719736716,-0.204413692231603,-0.399132964471985,-0.988085430262483,0.0293951764470859,-0.207120652630193
542.409447368422,103,5.37931798473775,-1.02957561403699,0.00596836139843591,-0.391837982467186,-0.959337192985954,0.0886395122781006,-0.132557824563725
543.412052631579,103,5.64935291763126,-0.907901747368495,-0.0187576158941419,-0.174523026311392,-0.788637537718788,0.18392265394849,-0.519399760085525
544.414657894738,103,5.1650043410521,-0.903568802630549,-0.151929828947837,-0.29287772368278,-0.815586000874945,0.0142831392340459,-0.355156612292936
545.417263157895,103,5.05230649605288,-1.08265825000368,0.0871104799476514,-0.370567849980182,-0.870249365791505,0.930624055254711,-0.189691507889854
546.419868421053,103,5.45542399421095,-1.33727334208494,0.0550098742035592,-0.148970038451647,-1.04792366315725,0.90990743368333,-0.116853535582007
547.422473684211,103,5.57089056868405,-1.5594693233003,0.250082060148188,-0.0316750140913029,-1.14017671052118,0.739534210535561,-0.041493828949209
548.425078947369,103,5.60725630684257,-1.88756557893902,0.169130931574257,-0.308020242081558,-1.1977828865107,0.998392210850845,-0.287107085508207
549.427684210526,103,6.06264463039498,-1.97617329605263,0.950459428289125,-0.99553555921087,-1.18158104209907,1.65261854737108,-0.400490590530468
550.430289473685,103,6.02344205920985,-1.86534256139444,0.884533140359673,-1.0417279649289,-1.33121726316152,0.693637221033646,-0.401443505267609
551.432894736843,103,5.33333381749903,-1.21306430000289,0.507359766668264,-0.456340666667677,-1.58072750000568,-0.423290449988516,-0.435107399991883
552.435500000001,103.166105263154,4.94149859157894,-0.572469647353522,0.275331463187001,-0.463970394715232,-1.78350335525773,-0.170348875027559,-1.26641925660331
553.438105263158,104,4.29884147473617,-1.05600212139874,-0.246047294465526,-0.784577862213253,-1.47552980588304,0.800724360866195,-1.32077082568702
554.440710526316,104.17131578947,2.84638728210396,-1.21607784211127,-0.464257292999695,-0.192246296496993,-0.99742587238894,-0.482789722366309,-0.207151252906669
555.443315789475,105,2.06274778026323,-1.5686299309221,0.119469750857959,-0.700271718425304,-0.446849194737807,-0.12708436517254,0.0298999527108468
556.445921052632,105.176526315786,2.80204112210662,-1.72289581578863,-0.577063457886854,-0.577826132892799,-0.449720248684553,0.29229857788767,0.0332194278932724
557.44852631579,106,4.39123062052836,-1.69323681581575,-1.18590124475118,-0.232109302669939,-0.738778766449572,0.796027162840578,-0.604387302633029
558.451131578948,106,5.18525764657881,-1.27030846316419,-0.563385816831654,-0.546700347384856,-1.5451269005848,0.0689411567252504,-0.748162459648968
559.453736842106,106.18434210526,5.01740648644716,-1.06466549123027,-0.280184807893328,-0.695228140339841,-1.21866546710318,-0.515134585517355,-0.248808625655996
560.456342105264,107,4.70157463157857,-1.25388692105177,-0.149031569475592,-0.341389863163201,-1.21586040350931,-0.173920236401357,-0.155086297895996
561.458947368422,107,4.21044844342046,-1.12997765570124,-0.11231095525744,-0.545455338816058,-1.04490864912346,0.157533828949506,-0.290532872808081
562.461552631579,107,4.14744989342137,-0.943339543861167,-0.167962333775367,-0.116871786396523,-0.916605046058042,0.130300500643301,-0.00180464854410643
563.464157894738,107.194763157891,4.58110173486893,-0.940749507556072,-0.120417226068438,-0.138744393754511,-0.822431029385713,0.211851985089478,-0.361749121062873
564.466763157895,108,5.01475357631609,-1.17137375438913,0.258137917548847,-0.194128265788315,-0.732098136839187,0.966929836837009,-0.269975269491686
565.469368421053,108,5.44840541776365,-1.93518469737232,0.922294265520583,-2.39705608867258,-0.892695106644093,1.76793235516092,-0.418341882873564
566.471973684211,108,5.91910526473718,-0.67317604562484,0.90654667106482,-0.264225596199096,-1.82302271580224,-0.71666079052091,-0.872417088435076
567.474578947369,108,6.20875308078952,-0.624925839924074,0.157632727185771,-0.43502994738348,-1.06761364468572,-0.656068421068225,-0.234445059208802
568.477184210527,108,6.25365977052634,-1.24637539475134,-0.0340411181653176,-0.199087810521708,-0.34897659473544,-0.862994225438417,0.165025771232009
569.479789473685,108,6.50921377000051,-1.98222094078955,-0.662575356608023,-0.615865188152486,-0.247521976327517,-0.028502248668809,0.0835263740779185
570.482394736842,108,6.99192810000028,-1.77846666666667,-2.08811333333333,-0.315435,-1.29062359997019,1.58591533328964,-0.444285533308277
571.485000000001,108,7.22907629271928,-1.53096930920992,-0.919909859875553,-1.05345046907402,-0.852818808918862,0.982463996735601,-0.374322474372341
572.487605263159,108,7.20686190210523,-1.5961232894816,-0.702953710406429,-1.09888042101203,-1.14048947368519,0.359971427641448,-0.87600318419088
573.490210526316,108,7.18464751149121,-1.15581463158354,-0.311730415803824,-0.0917507894497501,-1.34464256576143,-0.255824538166509,-1.13884629483826
574.492815789474,107.776578947372,6.61453046473627,-1.0989105657895,-0.148760656578557,-0.431401544733568,-1.19931515789797,-0.167501151063957,-0.377751947378866
575.495421052632,107,6.15282894078968,-1.14870059648035,-0.286622178065366,-0.128975996085099,-0.987240355231564,0.061799523612386,-0.28258592370326
576.49802631579,107,6.36926133894766,-1.08426644736892,-0.123476263189593,-0.109287742622201,-0.963482730263509,0.0937112289458184,-0.287972276316856
577.500631578948,107,6.5208818642106,-1.08226785085952,0.118820632666325,-0.46588977630244,-0.849842638144836,0.570666684164809,-0.217536250004101
578.503236842106,107,6.60818873052643,-1.01410810527748,-0.0561853968348494,-0.490972405254046,-0.843037270157313,0.837658368436758,-0.162082070153196
579.505842105264,107,6.39436255842062,-1.51236052196384,0.170452900019251,-0.264407735712954,-0.993234728934221,0.963051677647134,-0.230902657906647
580.508447368422,107,5.88786643157829,-1.54210903158539,0.216097823154011,-0.00051199547294704,-1.10388394632131,1.08637196158131,-0.463022296846245
581.511052631579,107,5.38137030473643,-1.97771,0.798725359210208,-1.73765220525907,-1.37639060525622,1.07656466580665,-0.537936690274639
582.513657894738,107,5.56355546350981,-1.76996631575814,0.657555999912359,-1.4431354732711,-1.60216263157876,-0.345609368414681,-0.397430657894715
583.516263157895,107,6.3945080215796,-1.01590571167787,0.581387924867151,-0.659366237529229,-1.98445517105349,-0.422325539211449,-0.770980531578003
584.518868421053,107,7.22546057965013,-0.325892681576143,0.61378821314182,-0.10340375565035,-1.7218661666902,-0.604970785578907,-0.571713084239962
585.521473684211,107,7.33188534802591,-0.261120138153303,0.302624322807755,-0.00336081006974273,-1.20141684210354,-0.445088576316073,-0.24967959841973
586.524078947369,107,6.77675785289409,-0.362832731579464,0.227136421054585,-0.169519324729469,-0.818124936834122,-0.666913389480398,-0.0804934252650158
587.526684210527,107,6.68048198828969,-1.02532032234615,-0.0173903677527713,-0.238379282890403,-0.520453823679655,-0.828967476315683,-0.202529219196747
588.529289473685,107,6.99453304789509,-1.40196487979821,0.0644326347300425,-0.256739364926516,-0.342256015786926,-0.774374142099514,0.396460505025036
589.531894736842,107,7.11131886499996,-1.98289,-0.145985567471615,-0.300733974982522,-0.287048866669147,-0.436109471699459,0.131286204176414
590.534500000001,107,7.05534341315783,-1.9835087368422,-1.94620494735999,-0.236802150883326,-0.789900815780121,0.897146513998663,-0.0322968121846263
591.537105263158,107,6.51416280105204,-1.73237914478727,-2.15909640789493,-0.42069841310961,-0.789735982421207,1.20240402274199,-0.614040134994934
592.539710526316,107,6.38973281964974,-1.18304671047459,-1.83743407915615,-0.371910670844342,-0.796265171051141,0.689859272357518,-0.26799281579697
593.542315789475,107,6.97222308342192,-1.02426458941735,-0.296537501780508,-1.5365775792736,-1.25136030264941,0.812769802638124,-0.0475395407387927
594.544921052632,107,7.55471334719357,-1.70903442103116,1.33944252310448,0.964520526211918,-1.05200690520266,1.11742721075687,0.0143083370995589
595.54752631579,107,6.98924587894655,-1.04048731547282,-0.724804371053503,-1.15395640929578,-1.07663142105369,-1.65464185282729,-0.404488437681145
596.550131578948,107,5.47960308210379,-1.1331210000234,-0.0211636882592388,-0.355437766375647,-1.18860818235829,-0.0830253016626314,-0.539747296469962
597.552736842106,107,5.11032753131656,-1.1115719078963,-0.238724736830832,-0.510526618396633,-1.1959653947364,-0.378798421015164,-0.19717960526596
598.555342105264,107,5.65948451210578,-1.01876103157914,-0.128293154736691,-0.453924547367422,-0.91053815683969,0.0988876812729547,-0.36718188630404
599.557947368422,107,5.90354390657895,-0.926652032237699,-0.0152687251348906,-0.661791788154747,-0.955320723683777,-0.0941213017101449,-0.126553974341902
600.560552631579,107,6.07728213157922,-1.04389703508629,-0.163602847361222,-0.103138911056272,-0.907275084205327,0.232450215793892,-0.353795326336162
601.563157894738,107,6.38389386013199,-1.13908378947523,-0.0355429920969376,-0.518153473677641,-0.880382647368002,0.388285990777542,-0.210303068430812
602.565763157895,107,6.50891187815788,-1.28599701754051,0.1779940701727,-0.210411842103229,-0.874314736854334,1.0043819209771,-0.394144710517166
603.568368421053,107,6.49519122513156,-1.41698348685947,0.35191787632182,-0.102733282762334,-0.875501616667912,1.1079477280703,-0.243327209648702
604.570973684211,107,6.59586228947384,-1.71808393417738,0.167952377352085,-0.180214659197054,-1.22920294736878,0.857777870172939,-0.244777524559689
605.573578947369,106.695815789477,6.7820962171055,-1.95399283882649,0.220438474674464,-0.239661776188876,-1.30073873683785,0.900253355281957,-0.260827852641711
606.576184210527,106,6.13752415842008,-1.97558197368427,1.01713580004764,-0.917225763127883,-1.48652894737005,1.72817435088463,-0.354479238621992
607.578789473685,106,5.83526604315836,-1.97768947368406,0.751916769722016,-0.927209796045111,-1.3965570000004,1.40732626318568,-0.526609398697906
608.581394736842,106,6.22175032000029,-1.9174203333442,1.06021716666785,-1.43546943322456,-1.37734100000564,1.51721975003816,-0.255424349983067
609.584000000001,106,6.16458503631535,-1.40516451314667,0.946668636811152,-0.738177844432289,-1.60147996712653,-0.0412896349135179,-0.743386000083164
610.586605263158,105.682789473688,5.79279895263132,-1.41844705261386,0.684145536820154,-0.289325326263811,-1.62174905263217,-0.679789203949887,-0.379303142105126
611.589210526316,105,5.72082674789489,-0.973386994722605,-0.0454184868609158,0.138509626315316,-1.9823262982467,-0.172628873693909,-0.667611387712359
612.591815789474,105,5.85696049052641,-0.150391802629078,0.163197355246849,-0.826057886862793,-1.98032359648594,-0.700663184211721,-0.2650253771903
613.594421052632,105,5.92587504026318,-0.495090176325575,0.28904259866102,-0.59252615528312,-1.81663214035105,-0.683198195585261,-0.709765504421054
614.597026315791,105,5.94912545631582,-0.295924278238692,1.05640400001281,0.0939096701634859,-1.43924705263625,-0.711075842113473,-0.209513631580535
615.599631578948,105,5.84754421973665,-0.315668099727168,0.274678038873142,-0.249105348208193,-1.03064379273319,-0.638051128313686,-0.17152275026047
616.602236842105,105,5.662974616842,-0.700084731563008,0.0921310380723874,-0.23979949122825,-0.54833881579578,-0.831235157892234,-0.195571915788502
617.604842105264,105,6.07374899355344,-1.17441934210035,0.168154101317669,-0.182093750000874,-0.296075775001667,-0.799601055258894,0.146516996323345
618.607447368422,105,6.87180774394853,-1.59708947358058,0.218506425226292,-0.193729726319713,-0.269747473708504,-0.967365689432289,0.111161605270973
619.610052631579,105,6.77750882763093,-1.98332670394734,-0.448655213305556,-1.12650861713536,-0.230218765714565,-0.255059003167181,-0.0411245600663667
620.612657894738,105.343263157892,6.51049835526313,-1.96606107895684,-1.30661120652369,-0.946913755321191,-1.18230171491894,1.17221464209533,-0.930636563659664
621.615263157895,106,6.4923261348684,-1.20892252630195,-2.12059052633235,-0.107302411858539,-1.04910663860892,2.02860150877176,-0.232148010875831
622.617868421054,106,6.41943744263143,-1.36154627192842,-0.422399763174468,0.737088972800404,-0.618174263143335,0.226329160528875,-0.115390473707258
623.620473684211,106,6.45368812697379,-1.51288948690299,-0.672968683914438,-0.617233781455264,-1.75935852891419,1.12950071831253,1.10568477783133
624.623078947369,106,6.57372504210542,-1.21599781578363,-0.55670804742571,-0.202730071120539,-1.1781740842189,-1.97472160204214,-0.46886309895602
625.625684210527,106,6.56488407894729,-0.984250442752441,-0.934008561893591,-0.552428603954596,-1.32292718949408,-0.424996737621123,-0.699755316319071
626.628289473685,106,6.47926158947357,-1.1232785964906,0.260712729829516,-0.706358088773489,-1.52562189473858,-0.0393616140770433,-0.542983428130967
627.630894736842,106,6.39037657499993,-1.04030525,-0.4620431875,-0.1127718125,-1.500815357145,-0.467131499999553,-0.46483417857348
628.633500000001,105.635894736845,6.33485145109307,-1.14824437719386,-0.279780643551072,-0.284708108775613,-1.16998414473614,-0.417127390790011,-0.196998273684142
629.636105263158,105,6.29964226795544,-1.12948094736854,-0.112767800309017,-0.481412129859746,-1.32556680625644,-0.088574629211042,-0.321451068416448
630.638710526317,105,6.26443308481777,-1.04348250789488,-0.0563397705271702,-0.669307778946963,-1.09279600000613,0.0996075621094372,-0.280234978955332
631.641315789474,105,6.22922390168014,-1.03961262105255,-0.0800439047353155,-0.307759254737587,-0.99996713901673,-0.00710006978271581,-0.346693361314119
632.643921052632,105,6.19401471854247,-1.01913400584708,-0.111877391257243,-0.22123375877543,-0.99135671381554,-0.0941821292775562,-0.257178442108791
633.64652631579,104.622868421056,6.15880553540483,-1.04628010263789,-0.135447037466082,-0.0940378992777218,-1.0089064710783,0.217597307891589,-0.15644542632542
634.649131578948,104,6.12359635226717,-0.944633513161252,0.0656094128997214,-0.244130594740361,-0.894618018424019,0.182816947367456,-0.499054542097759
635.651736842105,104,6.08838716912953,-0.898161949122671,0.0281816299848151,-0.374130169346884,-0.816069807458742,0.24104229517176,-0.277869532889689
636.654342105264,104,6.05317798599186,-0.967527123985942,0.0476026107963372,-0.395932798305069,-0.872934163684481,0.204702974146581,-0.501794706525671
637.656947368421,103.612447368425,6.01796880285423,-0.98855117895057,0.0559008499940566,-0.542551165784369,-0.847893870615082,0.594495984659031,-0.316032087723708
638.65955263158,103,5.98275961971656,-1.35362940351821,0.288819279529919,-0.460065122809729,-0.892236768419122,1.21246252631046,-0.338274757891762
639.662157894738,103,5.9475504365789,-1.68742889474048,0.106285951226254,0.182018585872507,-1.01764571894778,0.944066029473786,-0.217077966682648
640.664763157895,103,5.91234125344126,-1.47702937718399,0.148207132542935,-0.326690845527792,-1.03404529473335,0.976620342105952,-0.367795792363825
641.667368421054,103,5.34159375947247,-1.95137015789333,0.416424282574325,-0.238987201523163,-1.26513530153484,1.40092750589734,-1.39883496854917
642.669973684211,103,5.21944375026338,-1.95008460527738,0.930315921054427,-1.80517450004997,-1.4351102631609,1.62075684212227,-0.256262052625229
643.672578947369,102.596815789477,5.44788234644769,-1.8211966053197,0.732379314439391,-0.882987176199657,-1.4733594013157,0.589016073685038,-0.460857653947504
644.675184210527,102,4.91602076736758,-1.2877359123266,0.594252367597394,-0.951083078949942,-1.52004821042774,-0.356725520739321,-0.328702389498873
645.677789473685,102,5.02768087829028,-0.937101460627041,0.577850165882968,-0.179024944934012,-1.80664473685781,-0.229351640788747,-0.786584963151266
646.680394736843,102,5.61663627500053,-0.277967789988534,0.263973849900466,-1.65380030030448,-2.01979,-0.52555252002641,-0.392425599986558
647.683000000001,102,5.74298980447357,-0.341453726968047,0.503957172736123,-1.06576656756319,-1.93713838817242,-0.0394432450591369,-0.603426629938316
648.685605263158,102,5.65545233894729,-0.273447262095554,0.39123604986161,0.0839462096055236,-1.37775201311774,-0.700924203929329,-0.393147352617557
649.688210526317,102,5.52883542421034,-0.332915755263201,0.254665526315775,-0.0691936252630434,-0.89555273548965,-0.625375113148923,0.0725596382251936
650.690815789474,102,5.42210852631572,-0.346931747385097,0.154308315781787,-0.0847161537140864,-0.829756829453474,-0.695647495267316,-0.882426963096915
651.693421052632,102,5.33211467789462,-0.845974457888864,-0.00726222812398597,-0.499098102635543,-0.437840742559533,-0.817583709662513,0.0464527051411983
652.69602631579,102,5.26508484947364,-1.42106250001186,-0.060121367108626,-0.192148013148626,-0.32883101316002,-0.685502671052781,0.122690298683725
653.698631578948,102,5.24657960052631,-1.68629727197075,0.037408139147053,-0.58883967285781,-0.305821168420093,-0.83730485789139,0.0344664101302071
654.701236842106,102,5.24463454631579,-1.98193318421052,-1.10905581578497,-1.05408997894825,-0.399847642982524,-0.246693089466175,0.629968639470159
655.703842105264,102,5.33788327500016,-1.983693263158,-0.851033302667575,-0.485725772716268,-0.759512676336555,0.49945717935754,0.13657146267828
656.706447368422,102,5.18611357052588,-1.88027873682955,-1.97035942106112,-0.191733660028679,-0.797510674548869,1.35325708328656,-0.779703710813148
657.70905263158,102,4.91638267657864,-1.21500618419864,-1.89583335527043,-0.245795651358122,-0.820042197289162,1.6672271052102,-0.389508254183103
658.711657894737,102,4.97886272000013,-1.10191909990704,-0.817621368721103,-0.343661105451679,-0.861404836898695,0.751611564797383,-0.483973526446484
659.714263157895,102,5.17545356000022,-1.48736389481411,0.816370184381295,0.96633802648022,-1.55597950002565,1.18622027367175,0.194524078917344
660.716868421054,102,5.46364059473734,-1.46251685293359,-1.08452493743993,-0.298352757673199,-0.895664969084149,-0.845514332891349,-1.10935390395117
661.719473684211,102,5.64154381210539,-1.03349921688674,-0.401070362721565,-0.65664402440636,-1.32811472040565,-0.36604663645982,-0.799655371101029
662.722078947369,102,5.76259837157913,-1.11412999998734,-0.231844184187556,-0.191704842099363,-1.30466052631751,-0.0426737894568504,-0.297204263157968
663.724684210527,102.455289473681,5.3031304731572,-0.939462557892888,-0.253875529372128,-0.805337685265363,-0.988952482456106,-0.0826310621834039,-0.75336944997613
664.727289473685,103,4.62390551157796,-1.08281188946674,-0.0205767784766734,-0.440854496515232,-1.04110379802596,-0.00218977888175085,-0.34682944473751
665.729894736843,103,3.94468054999933,-0.931856875000682,0.0419711525432502,-0.516847729994925,-0.871232433333365,-0.0147985666590135,-0.28517560001114
666.732500000001,103,4.67850065394913,-0.998995642115331,-0.0147302610693319,-0.3694625684143,-0.852508257893314,0.366448134210085,-0.228788505271144
667.735105263158,103,5.92651862039591,-1.10769964912058,0.100197697356609,-0.481278293856961,-0.876793072368424,0.575454269733518,-0.340426565789291
668.737710526317,103,6.0920320331576,-1.36130231578424,0.260427428948019,-0.723389728945324,-0.953865131574011,1.02231797368818,-0.362185389471259
669.740315789474,103,5.87402053171033,-1.69523266776602,0.353983420396506,-0.206268619352151,-1.08836184210858,0.917342716315399,-0.122724108419538
670.742921052632,103,5.58227274999958,-1.97675653947356,0.595382551354342,-1.08606955007098,-1.24427389470633,1.32236010527972,-0.387028024314391
671.74552631579,102.523868421056,5.26509857499973,-1.97830396052594,0.893872643398634,-0.783063823681869,-1.32599044209913,1.09734598951235,-0.247280563511414
672.748131578948,102,5.21117778105268,-1.97218736842034,0.918734552651958,-0.946052500002747,-1.41247394736725,1.36479684210592,-0.171550657893537
673.750736842106,102,5.3942981993423,-1.93490323689429,1.09979494477163,-0.442800188656537,-1.44518314911646,0.402643597425968,-0.579000228091042
674.753342105264,102,5.62662690394766,-1.19073905259633,0.657166157878951,-0.32933650521586,-1.59378163155783,-0.505403621079048,-0.47263915783445
675.755947368421,102,5.7149443914474,-1.49416586207229,0.959543710047847,-1.72221908165354,-1.76068567759915,-0.38230377555643,-0.768092663088677
676.75855263158,102,5.75692848684216,-0.183203501736834,0.861456478970526,-0.226611490735247,-1.802366526337,-0.864178121043468,-0.180539139480869
677.761157894738,102,5.73787644947362,-0.170786700656212,1.06549181579102,-0.0156966250032233,-1.67877756579331,-0.801907506578608,-0.187058976975426
678.763763157895,102,5.60480728894718,-0.346280764912352,0.476021108809689,0.0404728943936702,-1.47638607017306,-0.624343375433739,-0.175463666667429
679.766368421053,102,5.44247547078936,-0.213789481577061,0.318915752632959,-0.00434495658690807,-1.06686412367809,-0.551311273688263,-0.0518908578941652
680.768973684211,102,5.10194749473639,-0.52543995000534,0.114227846313217,-0.283664765785499,-0.675275814742914,-0.846824346316533,-0.178803889261733
681.77157894737,101.497815789477,4.95317845394725,-1.14500201250611,0.0751313720396585,-0.371737843417915,-0.390438263156187,-0.888132696501574,0.024452707001933
682.774184210527,101,4.87672980263149,-1.61985052630392,0.0701844789455577,-0.233981631580664,-0.384082649122686,-0.774842947372683,0.148216368405328
683.776789473684,101,5.13681340675461,-1.6062464736583,0.0949967089438208,-0.164779565793282,-0.371412065790995,-0.779369783879305,0.107517087271502
684.779394736843,101,5.49327634000038,-1.94204599999132,-0.124961099972102,-0.438587199986489,-0.322083149990147,-0.0779943250994131,0.214739020004096
685.782000000001,101,5.84973927324615,-1.98131609539398,-0.616028222313413,-0.539053882256163,-0.561308406559152,0.781138822779079,0.152651466678735
686.784605263158,101.515210526312,5.39414206789405,-1.98233343859646,-2.00818273685325,-0.23493150174361,-1.33613486845377,1.05778893682404,0.045930045254571
687.787210526317,102,5.13409625013136,-1.76458939554859,-1.86277953533904,-0.897372652184596,-0.745642927578338,1.35737712169425,-0.228605855151865
688.789815789474,102,4.98659797684196,-1.35745184198828,-1.64275096613608,0.114041765975126,-0.728338815675739,0.283907857741511,-0.18685511597335
689.792421052633,102,4.93517465868417,-1.80279677643099,0.796767895135104,0.610889614032906,-1.47039478167272,1.1663244346093,1.2247139528826
690.79502631579,102,4.90883621842103,-0.796567694715179,-0.410417147312454,-0.393248688336011,-1.02406994477233,-0.722818571087526,-1.35546265807527
691.797631578948,102,5.22771995184266,-1.48685718424856,-0.591993880333607,-0.313434148641513,-1.44277086835086,-0.186943621093963,-0.740088065795061
692.800236842106,102,5.32658147842107,-1.17074671056761,-0.114202144685008,-0.214330861865623,-1.51183000006512,-0.219151849969138,-0.662325342093994
693.802842105264,102,5.34897466697371,-1.13984711842503,-0.240232804870203,-0.511563067782993,-1.03709611404251,-0.642223698242158,-0.15086465553309
694.805447368421,102,5.302937918421,-1.05813403508962,-0.234245933332287,-0.141143859649081,-1.23355752631658,-0.150177363158505,-0.140639815789422
695.80805263158,102,5.24042548026308,-1.01647792631602,-0.133497544894267,-0.58141182368292,-1.00414764335363,0.0371511574767708,-0.735769298973869
696.810657894737,102,5.04939306526298,-1.06214549080016,-0.123405124886898,-0.473449729962163,-1.01228775658071,-0.107477793818461,-0.309188757896378
697.813263157896,102,4.82843891736814,-0.953446690797797,-0.0460730204009181,-0.576258506549727,-0.951906165935727,-0.045971156271936,-0.558186093567479
698.815868421053,102,4.96135186684227,-0.95816235789726,-0.0722484299885578,-0.570285610506195,-0.993388881581162,0.00554998025741298,-0.381384600001754
699.818473684211,102,5.46234787644806,-1.00812409999712,-0.0672372386983537,-0.129963736180872,-0.912163631140702,0.191194886845523,-0.376399576340076
700.821078947369,102,6.02712043421095,-1.0498655578932,-0.0394155207765308,-0.796453115847165,-0.854149113157985,0.381433833332077,-0.381596206140754
701.823684210527,102,5.2737588405251,-1.05032646315782,-0.0442681724546342,-0.610629345178169,-0.843392093416534,0.631688613188462,-0.271894230266081
702.826289473685,102,5.39849300026375,-1.11143245612531,0.263915975460825,-0.365007473692852,-0.904824815788385,1.08956623683998,-0.304207052620089
703.828894736843,102,5.76619346750042,-1.38579549997607,0.18769952502396,-0.138912824989271,-1.16487516666831,0.523590058354509,-0.0304247533488919
704.831500000001,102,5.55009949052579,-1.75564141667099,0.342207079216986,-0.372305958443083,-1.1258273684241,0.88680243682614,-0.191197591563755
705.834105263159,102,5.48266422894735,-1.97809644210531,0.613344959463294,-0.427480290788187,-1.16197154824693,1.41966836623045,-0.498007964476479
706.836710526317,102,5.46808634842103,-1.97722037280703,0.881517373683673,-0.868004911179686,-1.39356282105532,1.74499757894618,-0.367610456817184
707.839315789474,102,5.54955482157905,-1.9358156335284,0.824738379141883,-1.7949115657867,-1.51111175000488,1.2763829565884,-0.406550639469573
708.841921052633,102,5.64935414947383,-1.97633998684225,0.980046047357335,-1.05074957894776,-1.39737363155523,1.62840144734976,-0.381436198668822
709.84452631579,102,4.91083206684119,-1.97708371929823,0.953591814915945,-0.845112499568199,-1.45358948355537,0.59313370552243,-0.410726665077501
710.847131578948,102,4.84265122763169,-1.97564,0.98334176140766,-0.748275424544265,-1.69595786842868,-0.102919659258249,-0.831471400032509
711.849736842106,102,4.92274434907903,-1.86771903007146,1.08618625939776,-0.950469318789426,-1.41560582894239,1.13899507929806,-0.387283036182709
712.852342105264,102,4.88743239999992,-0.632021378934829,-0.351919042123027,0.0876999105317478,-1.617122842104,-0.78198614738048,-0.161191731578231
713.854947368422,102,4.83218884999995,-0.344615165796189,-0.345258165825796,-1.00347156186527,-1.92705963684615,-0.264453878152533,-0.526390947369033
714.85755263158,102,4.55247419499956,-0.346822485935218,0.95383722547243,-0.439298450680025,-1.85189831578105,-0.789067836846949,-0.220357342100912
715.860157894737,102,4.23558576249971,-0.225810818420886,0.646666809202249,0.0219823217138042,-1.68542172630775,-0.800975856322359,-0.340540106840773
716.862763157896,102,5.0767290242119,-0.465690094089578,0.276947084829459,0.112999162380682,-1.29647492457264,-0.646859710532533,-0.531546563152214
717.865368421053,102,5.14845645749993,-0.290856959210996,0.105608514202286,-0.217054172114073,-1.09602089036421,-0.763929925436171,-0.122919184215118
718.867973684211,102.598578947365,5.0723537049999,-0.342556239100892,-0.0244283075305186,-0.587028093254555,-0.609868126292266,-0.822735684228119,-0.117857842104502
719.87057894737,103,5.06040379644736,-0.313011949627789,0.296598300380675,-0.114098754120842,-0.834336419636359,-0.836695971073639,-0.37036547857944
720.873184210527,103,5.05796245263158,-0.983664201753526,0.125530068427108,-0.293569696490244,-0.950553568415433,0.236834226322129,-0.16389578420985
721.875789473685,103,4.2096225852624,-0.922949523684213,0.0946563802629041,-0.423762662497789,-0.963751519079112,0.0931031388812467,-0.314164769737597
