Time,ZephyrHR,COSMED,ANKLE_AccX,ANKLE_AccY,ANKLE_AccZ,THIGH_AccX,THIGH_AccY,THIGH_AccZ
0,95,1.6933238768959,-1.04339759998845,-0.0336359668425595,-0.0333437115520085,-0.911996793016406,0.577438509553589,-0.124013323733064
1.00272361111183,95,1.52284331534369,-0.995878695003008,-0.0268759175175754,-0.132638369899381,-0.982149096354038,0.027827841969963,-0.528242320298724
2.00544722222276,95,1.35695443529171,-0.978081763321453,-0.0265898760354896,-0.332262329425219,-1.05889547258912,-0.0611564706010323,-0.140012542578809
3.00817083333368,95,1.60909179411458,-0.723596000012631,-0.0231065832095799,-0.338928186359119,-0.962091812966509,-0.164237460645837,-0.200788968517335
4.0108944444446,95.0553416666635,1.85921696266664,-1.31651797499913,-0.0798366617116656,-0.452824755848582,-1.11101925416681,0.234528238876322,-0.212188195647868
5.01361805555553,96.0580652777744,1.98788645644439,-0.956836047138989,-0.187341181025048,-0.297209333023156,-0.925330952567033,-0.0188404431832227,-0.496424520037647
6.01634166666736,97,2.11655595022226,-1.15948141552698,-0.298872678356576,-0.294772950282409,-0.980203442470644,0.163332607431923,-0.227376546047653
7.01906527777828,97.0635124999972,2.24708667812503,-1.41673587503873,-0.260535043751985,-0.152491947498428,-0.586725110000215,-0.512566315001553,-0.0658547972479669
8.0217888888892,98.0662361111081,2.45189297569443,-0.374077605092395,0.341079604654377,-0.0263672730675298,-1.14286890276197,-0.355374220464336,-0.394614987470645
9.02451250000013,99.068959722219,2.65669927326384,-1.62918213680929,0.205124473408013,-0.25488055451414,-1.13750681701373,0.212333823298729,-0.390964657031896
10.027236111112,100.071683333331,2.84488822024986,-0.969896605747253,-0.0461968402376089,-0.809186793311802,-0.896927506116047,0.104496586216849,-0.254699595856735
11.0299597222229,101.074406944442,2.53987473860408,-1.04843438518471,0.094288764811818,-0.395081095096294,-1.02797228263653,-0.108680517375609,-0.588114069310016
12.0326833333338,102.077130555553,2.26781692416672,-1.18987997777672,-1.31689911111401,0.124155002900079,-1.10043302083518,0.677732860703462,0.00290657245635671
13.0354069444447,103.079854166664,2.82944241874995,-1.34225764582983,-0.306381009029851,-0.27593608472357,-0.672477546871495,-0.34981385346807,-0.0788538986794329
14.0381305555557,104.082577777775,3.3819133842962,-0.47643328556041,0.45648595778169,-0.0682778015414914,-1.28104728891718,-0.522116023341838,-0.147709541113901
15.0408541666675,105.085301388886,3.73289338748164,-1.56714259687691,0.330551151775248,-0.719863444108246,-1.13110843629781,0.404788050851263,-0.370838895644516
16.0435777777784,106,4.08387339066676,-1.03435714999944,-0.0852470283755963,-0.255861293753329,-0.933959307501577,-0.0577377803766834,-0.229935927511981
17.0463013888893,106.090748611108,4.40788555389582,-1.00914129256582,-0.161827842708808,-0.400623666251052,-1.00269980105395,0.0275078216621654,-0.390367868306722
18.0490250000003,107.093472222219,4.23631453041669,-0.964832430558813,0.050042932800712,-0.597338906498455,-0.818445847217759,-0.924782602777876,-0.380960208343664
19.0517486111112,108,4.10828964997204,-1.28544421406226,-1.33785706093758,-0.331193711103519,-1.10984018541534,0.766962748545638,-0.0314700942935303
20.054472222223,108.098919444442,4.70014391901876,-1.53698877869258,-0.469734788144019,-0.258827007133072,-0.73631305157902,-0.232964812758248,-0.189724581392613
21.0571958333339,109,5.29199818806495,-0.801423597301924,0.047288474032025,-0.0958195280539033,-0.972618919343443,-0.181660890090062,-0.242781307007173
22.0599194444449,109.104366666664,5.84135671555555,-0.955449927343139,-0.151280209360964,-0.343585640654424,-1.37440973333423,-0.199189928889048,-0.246345752221671
23.0626430555558,110,5.78132699537038,-1.38991643517504,-0.0797373841803593,-0.393937358809837,-1.11122291666529,0.282244277784924,-0.34611014583784
24.0653666666667,110.109813888886,5.7212972751852,-1.02227219973343,-0.0129505096298777,-0.222838472881813,-0.926321386712972,0.0722306184444399,-0.490413122777785
25.0680902777785,111,5.65214228662493,-0.984596361874324,0.0440266013339858,-0.174155190339859,-0.997052068593252,-0.0137628307032787,-0.636190070622674
26.0708138888895,111,5.467684593537,-1.27232121297784,0.19326147870984,0.463330509400718,-1.299702662972,-0.088085016352607,0.103333872677001
27.0735375000004,111,5.28322690044907,-1.81461424861063,-0.733709707474077,-0.422268735490188,-0.61929437153017,-0.42759938833231,-0.0816184861361754
28.0762611111113,110.87929166667,5.08772809645839,-0.72806063126472,0.0148835662418752,-0.262293935402529,-0.85733946666978,-0.416220945826338,-0.314521329172047
29.0789847222231,110,4.76777403300677,-1.27196810340897,-0.201027477116574,-0.571476173603808,-1.2292986264141,-0.318878231834807,-0.233233574851942
30.0817083333341,109.873844444447,4.41919852088866,-1.28042919555448,-0.0446618202250578,-0.17221955805108,-1.04745026666101,0.162095062220827,-0.182413641798258
31.084431944445,109,3.76995503716656,-0.953523900260381,-0.0733738433385852,-0.383416243645676,-0.941027526770828,-0.0144533007291595,-0.34360838166669
32.0871555555559,109,3.24360794093054,-1.00189048652991,-0.0497536942437679,-0.481353063056037,-0.982834288749953,-0.0865880228137861,-0.478786477775773
33.0898791666668,109,3.92511405684014,-1.3820536267355,0.00383543626310331,0.0274965451547124,-1.25016789909978,-0.162541586272235,-0.0874522849963798
34.0926027777787,109,4.52137076366657,-1.69356015002205,-0.302262095001619,-0.13621512250063,-0.48416412750973,-0.392174977475198,-0.0298259592374141
35.0953263888896,109,4.33106050710179,-0.574166037381291,-0.0826905444675476,-0.10150745763977,-0.800689670143315,-0.360148539363492,-0.122398011379685
36.0980500000005,109,4.14075025053701,-0.245275306466803,1.2784216384472,-0.104314103019714,-1.49431534333477,-0.22701599780946,-0.861330218161846
37.1007736111114,109,4.00468679652082,-0.904915102394578,-0.251116789169566,-0.71481804978813,-1.50008357291659,-0.131210239166477,-0.53636603437426
38.1034972222224,109,4.32646581694437,-1.94978366665486,0.160515646143473,-0.119417983334989,-1.26707772221607,0.781370912966143,0.0148925470420639
39.1062208333342,109,4.63861179255567,-1.00780254412018,-0.305058732730388,-0.16022492451721,-0.82103764335597,0.258492882362678,-0.248669027822289
40.1089444444451,109,4.87389086066674,-0.838755363166768,-0.288091835000076,-0.0534659590669083,-0.746191986664327,0.14633407166229,-0.243244457507261
41.111668055556,109,5.08368135010648,-1.09143904583347,-0.341640671939226,-0.130498597746757,-0.981674045117949,0.422672921311156,-0.362018990760901
42.114391666667,109,5.10073099390741,-0.982703735925293,-0.0208312866186988,-0.329336743517865,-0.934020939444748,-0.0416689097615819,-0.357454300444653
43.1171152777788,109.161562499998,5.11778063770834,-1.49576124994111,-0.921191953088793,-0.474684387566009,-1.70635412503077,0.792683125084973,0.155597412538903
44.1198388888897,110,5.12705160096665,-1.43708125412102,-1.97162225975919,-0.285203315702252,-1.19132836249734,0.954671476150608,0.106225415481852
45.1225625000006,110.16700972222,5.08184480968332,-1.10426967904706,-0.148071689562738,-0.0863128241063973,-0.738086849545128,-0.460348836692127,-0.31504182205224
46.1252861111116,111.16973333333,5.0366380184,-0.698221288900609,-0.336337964320452,-0.248340651097014,-1.34676366665904,-0.373430826661888,-0.207492676686998
47.1280097222225,112.172456944441,4.99143122711667,-1.37944623865808,-0.125140696129764,-0.351898153474069,-1.16938331666535,0.157465892430704,-0.356724058469744
48.1307333333343,113.175180555553,4.94622443583331,-1.07986205729576,-0.0894110128454428,-0.139296210065781,-0.968756393229522,-0.101562085155817,-0.327586571177433
49.1334569444452,113.822095833336,4.77262074466626,-1.03009487998068,-0.0402354679266621,-0.340197629032319,-0.988520700557613,-0.114624408732253,-0.445983087238248
50.1361805555562,112.819372222225,3.80054036711088,-1.31322559583564,-1.44722103679327,0.132015583202186,-1.16005327593451,1.06100357094611,-0.0923804552953999
51.1389041666671,111.816648611114,2.82845998955551,-1.12894027951624,-0.372996885589498,-0.348474605744845,-0.701843706389828,-0.357671028612065,-0.156319814306663
52.141627777778,110.813925000003,1.72446488238776,-0.950330507488331,-0.107938690154349,-0.490074501241029,-1.36018062500313,-0.446750700005967,-0.163188515002253
53.1443513888898,109.811201388891,0.199226731417793,-1.63084231249334,0.0960067777597564,-0.29897053859335,-1.29500138541324,0.341253621868056,-0.317026378822559
54.1470750000008,108.616955555561,0.645223528807119,-0.972425016906464,-0.0650498842739402,-0.397042526115499,-0.911776067084301,0.0510176393829852,-0.476672836248936
55.1497986111117,106.805754166669,1.09122032619645,-1.03063056357119,0.00912453857378716,-0.330256596930112,-0.945768104416204,-0.0338977745287837,-0.352231957079602
56.1525222222226,106,1.53721712358577,-1.19907617453983,-0.870858446342011,-0.184533372166721,-0.893671037401917,0.29718689627386,0.030067080093654
57.1552458333335,105.800306944448,2.01641063559711,-1.39629139411457,-0.23901780551926,-0.357199981600741,-0.6277898712842,-0.464353601493225,-0.223365226388098
58.1579694444454,105,2.66955471416703,-0.960924264588955,-0.766449366677078,-0.316465051362797,-1.28260647916057,-0.304129142715724,-0.377091120816003
59.1606930555563,104.794859722225,3.32269879273635,-1.27889976370887,-0.116712240084542,-0.390465084641274,-1.0533780708472,0.158290766233444,-0.281634929321558
60.1634166666672,104.207863888886,3.97584287130567,-0.93358585684019,-0.112715543393155,-0.42455625527226,-0.963426547847173,-0.0693700296083851,-0.245506175507787
61.1661402777781,105,4.49836467859375,-0.948509201877148,-0.330642681250861,-0.218097481253579,-0.844670047757482,-0.544580057741787,-0.471234287240811
62.16886388889,105,4.3881778877777,-1.92691741479034,-0.978160966817332,-0.512237412812305,-1.1850450000059,1.09163451852208,-0.0575660822004132
63.1715875000009,105.21603472222,4.27799109696175,-0.631234100694872,-0.00269247611150408,-0.0336957,-0.942273763021329,-0.433181101735731,-0.124875878303532
64.1743111111118,106,4.1678043061458,-1.74219313833119,0.376257511996629,-0.302593038499909,-1.33583540999741,0.430765679499756,0.1546210815017
65.1770347222227,106,3.99693223229507,-1.09294671819645,-0.108981822933851,-0.222920572696251,-0.96237454564194,0.0226029766348063,-0.330078873207119
66.1797583333337,105.775794444447,3.55328469098613,-0.989574810231575,-0.0474014228143957,-0.468669905554792,-0.983119133054127,-0.136007406529611,-0.331550213473415
67.1824819444455,105,3.10963714967678,-1.59549660729386,1.22877379108227,-0.00793670980718698,-1.18617610823891,-0.219110488647995,-0.0592864080122099
68.1852055555564,105,2.66598960836784,-1.5595603101891,-0.135806570371759,-0.24329137407594,-0.597268876911177,-0.522440981252549,-0.124661963099816
69.1879291666673,105,2.37155322248968,-0.462127268476225,0.759697740768169,-0.381708761746999,-1.35998332031958,-0.422450724770324,-0.349159374142255
70.1906527777783,105,2.70161724675004,-1.47682909998846,-0.103458303507512,-0.0935271389953616,-1.0982283600005,0.162844078002926,-0.42809644600687
71.1933763888892,105,3.03168127101039,-0.92437396788097,-0.0224865251320716,-0.499073481500149,-0.892953585919542,0.0341750357273266,-0.457884913662391
72.196100000001,105,3.36174529527105,-1.02095152611264,0.000301316025923405,-0.407325421464315,-0.999419631428808,-0.213918275476102,-0.604178860790619
73.1988236111119,105.243270833331,3.70022629921892,-1.91704770833247,-0.863291000000689,-0.473777281250809,-1.02263937500899,0.537602109283057,-0.0313460271507766
74.2015472222229,105.754005555558,4.0716075498751,-1.08126877717287,-0.0978287638455769,-0.582406177562333,-0.656688540826373,-0.534763661942004,-0.148022096105352
75.2042708333338,105,4.44298880053128,-0.817819809282074,-0.979845331096729,-0.0175914384120302,-1.32546358403175,-0.324905806114923,-0.375899727221287
76.2069944444447,104.748558333336,4.81437005118746,-1.24243839583355,-0.00916151880274795,-0.124020341250133,-1.06113875833269,0.129830902735521,-0.279968108748913
77.2097180555566,104,5.06623721038877,-1.00400921145728,-0.0147078312566273,-0.72871636036072,-0.955070774027411,0.00137450252243801,-0.214605159860211
78.2124416666675,103.743111111114,4.88065312444436,-1.13677189166201,-0.496145569433976,-0.447470155189343,-1.15982861905775,-0.0252156785486207,0.0243526579351604
79.2151652777784,102.480775000005,4.69506903849996,-1.73838563126508,-0.947628013722168,-0.242572376864532,-1.02096261375812,0.588983278753299,-0.196344279992754
80.2178888888893,100.737663888892,4.50948495255555,-0.481961197557297,-0.0619592441629266,-0.273215236788446,-0.820369257684683,-0.312768348981779,-0.218126957499457
81.2206125000012,99.73494027778,4.30665024920813,-1.88411594340056,0.3852597704675,-0.561086177926197,-1.461031834954,0.235954826399286,0.0432017555139345
82.2233361111121,99,4.04454832449985,-0.977588867494729,-0.0769394529351656,-0.364501905021848,-0.914660403333054,0.165160440000887,-0.324207319168119
83.226059722223,99,3.78244639979156,-1.07126701042315,-0.180056226732003,-0.147007627087027,-1.07443619618062,-0.0577636625030848,-0.719567778550413
84.2287833333339,99.2732305555528,3.49297619620362,-1.43027192584972,-0.880315141869593,-0.079637900777387,-1.17173996163982,0.209250923175065,-0.524575162746521
85.2315069444448,100,3.1137127023611,-1.62866098333529,-0.433216125848572,-0.498885297919491,-0.710994791240867,-0.0494641582015633,-0.0532682697309333
86.2342305555567,100,2.73444920851824,-0.648097211108631,-0.0831523691938561,-0.045668510697344,-0.910096648882769,-0.0227363620415066,-0.135901723121739
87.2369541666676,100,2.57215596585214,-1.83297684027908,0.236748783540629,-0.582021325035833,-1.36856476234688,0.305364048454129,0.0824565004609103
88.2396777777785,100.284124999997,3.09041700666686,-0.993182774999635,-0.0493438037494071,-0.238505673750672,-0.997485133331698,-0.0235775137513072,-0.229068291670341
89.2424013888894,101.286848611108,3.60867804748158,-1.00129827545171,-0.0543149984594218,-0.342051090873226,-1.00374537646597,-0.142143476125507,-0.473735548050757
90.2451250000004,102,4.04361213103704,-1.12641147137721,-0.150510096656443,-0.579711638175055,-1.08393494938908,-0.0627320853700854,-0.541105482000091
91.2478486111122,102.292295833331,4.22842077738902,-1.94321102916618,-0.816442693959365,-0.387395569167453,-1.04909830732488,0.626898951300495,-0.0517435479704338
92.2505722222231,103.295019444442,4.41322942374084,-0.491187436869415,0.226530851262004,-0.103339937108269,-1.0248665552825,-0.288811208056703,-0.159125673616036
93.2532958333341,104.297743055553,4.54426177590277,-1.5711509062186,0.0171718683718703,-0.551062532992166,-1.28429321756991,0.0820233040084638,0.0486232055192589
94.256019444445,104.699533333336,4.52066768933333,-1.10889511111367,-0.0771475777794376,-0.26343021331471,-1.02980275555606,0.14046051555543,-0.19619290666835
95.2587430555559,103.696809722225,4.49707360276389,-1.01243624363003,-0.099062744155915,-0.61318548564019,-0.936557506179826,-0.233324114085048,-0.243524999238191
96.2614666666677,103,4.47347951619443,-1.07231886852929,-0.335511167139065,-0.548684976534997,-1.0125855545673,-0.197808368316801,-0.225767897733536
97.2641902777787,102.691362500002,4.53005782605014,-1.97810137086098,-0.641685364417943,-0.31314844245472,-0.885785477494702,0.314271683402084,-0.0664945456961124
98.2669138888896,102,4.80460756166675,-0.43558869448122,0.0560702389007471,-0.128381777775141,-0.945775541645193,-0.291374013925674,-0.206513458333023
99.2696375000005,101.685915277781,5.07915729728337,-1.72548190463039,0.51489716292408,-0.307878517640041,-1.27637462777668,0.41702748541247,0.211179014787567
100.272361111112,101.316808333331,5.35370703290023,-1.09295236667927,-0.161470943484581,-0.178060186674808,-0.99599045138821,0.0075569967173367,-0.217144768332666
101.275084722223,102,5.50633937842604,-0.981580378688014,0.0679553607760246,-0.328723641477324,-0.994517642847128,0.126880040657204,-0.357588770622307
102.277808333334,102,5.34511184136563,-1.51870841110582,1.36589293623285,-0.177901562229481,-1.06620822777919,-0.277211247240328,-0.210876243433472
103.280531944445,102,5.18388430430521,-1.37209607812852,-0.274319275001106,-0.363758264580281,-0.529199552082978,-0.530649113542158,-0.129304019791329
104.283255555556,102,5.02265676724479,-0.841385890739512,-0.426880539770923,-0.58852929414973,-1.3293689291653,-0.358594597495601,-0.231402772920359
105.285979166668,102.330426388887,4.86142923018423,-1.21979866354065,-0.0598479107707346,-0.190384001480986,-1.07052839527679,0.185750013911834,-0.200187187779633
106.288702777779,103,4.70020169312381,-1.04503511124837,-0.00661348779978468,-0.218092210007412,-0.967570312500196,-0.20751426249744,-0.142640752499315
107.29142638889,103,4.5389741560634,-1.12235633958882,-0.279119244084741,-0.138850986169946,-0.895713742847225,-0.40235220050879,-0.639115360694285
108.294150000001,103,4.37774661900298,-1.75713652777944,-1.04211525925496,-0.324351139352123,-1.07092995998506,0.698976277614095,-0.109337763938006
109.296873611112,103,4.21651908194256,-0.563916790424924,0.103560471558431,-0.0849291961856676,-1.00002436862346,-0.228476109011053,-0.180764776251693
110.299597222223,103,4.055291544882,-1.67664121112286,0.501144682226427,-0.361336653327532,-1.30259108888873,0.393492033317426,0.306816851108251
111.302320833334,102.653231944447,3.89406400782158,-1.03575141481495,-0.0976132290935001,-0.248078382548483,-0.918347396283986,-0.10556081771409,-0.278985485313574
112.305044444445,102,3.73283647076117,-0.954289698058884,-0.0388474375808188,-0.425606352224271,-0.973252192778238,-0.116570265413338,-0.605783915281815
113.307768055556,102,3.57160893370075,-1.73004554398631,1.34905275511675,-0.0976273932131671,-1.18779400810729,0.0846630335743245,-0.131090374092264
114.310491666667,102,3.41038139664033,-1.25877069723414,-0.253515481245663,-0.346150988773476,-0.65320707833273,-0.49375965731468,-0.287422794186456
115.313215277779,102,3.24915385957977,-0.910793681208639,-0.0824182762925562,-0.414204924913848,-1.31346056249133,-0.433147427478784,-0.3549670699979
116.31593888889,101.639613888891,3.08792632251935,-1.29050541296514,0.0168483122815285,-0.170038264077247,-1.12678069074191,0.227322327686248,-0.292449263055369
117.318662500001,101,2.92669878545894,-0.931181775725103,0.0510592861567146,-0.438332055661004,-0.950237540650752,-0.0181912899982248,-0.441596850861178
118.321386111112,101.365833333331,2.76547124839852,-1.33046150003923,-0.327757783335674,-0.512155928270954,-0.999183720843701,-0.268058833741408,-0.478031995817026
119.324109722224,102,2.60424371133796,-1.85844500206069,-0.244356840831422,-0.325075673205505,-0.571376215373378,-0.585146279611759,-0.0364674233878141
120.326833333334,101.628719444447,2.44301617427754,-0.51466814555215,0.355128224168903,-0.213447259412472,-1.15847947150277,-0.475055765547813,-0.264416175943225
121.329556944445,100.251991666672,2.28178863721712,-1.17317869584476,-0.00412720447001131,-0.321253017936169,-1.05105649167226,0.191790637922477,-0.252833765006362
122.332280555556,98.6232722222248,2.12056110015671,-1.06670235370656,0.0684226199851164,-0.226646527960243,-0.979190478333225,-0.106415438336945,-0.194567162221797
123.335004166667,97.6205486111139,1.95933356309629,-1.34755011097372,-0.424304048576278,-0.615285471922534,-0.788338243053948,-0.635285909724786,-0.542996824029714
124.337727777779,97,1.85023932187499,-1.85613554375213,-0.496405802540206,-0.668571928658196,-0.599916999996544,-0.403439167491613,-0.051361339000566
125.34045138889,97,1.84134014982638,-0.334714206208638,0.379874702305458,-0.230625424356977,-1.14114397499287,-0.369187124931399,-0.174548738389912
126.343175000001,97,1.83244097777777,-1.64923512223902,0.0641276195636254,-0.273623099968754,-1.31873533335881,0.226095631108804,-0.164745164377854
127.345898611112,97.3903458333307,1.82354180572916,-1.02007811152623,0.0646682667054391,-0.255038544029403,-0.889583,0.237850073742902,-0.201599484162059
128.348622222223,98,1.81464263368055,-1.00648492592737,-0.0807280510594865,-0.269756833460653,-1.02006000722093,-0.237735290835277,-0.365083639996158
129.351345833335,98.3957930555534,2.14596793967094,-1.2516725204864,-1.72703827592098,-0.240211464417278,-1.35113162431514,1.3190432530789,0.159141426319302
130.354069444445,98.6014833333356,3.0932284010423,-0.643041355001282,-0.0286430026680897,-0.150036281667062,-0.871730359999271,-0.400837376668093,-0.225345572497626
131.356793055556,97.5987597222247,4.04048886241365,-1.70644672153028,0.474705947636782,-0.364705907080468,-1.35808719375,0.471710241342595,0.113437230467506
132.359516666667,97.4039638888862,4.987749323785,-1.02649366110766,-0.192933592133939,-0.170086757964395,-0.936283427707843,-0.162245987910114,-0.262799038955545
133.362240277778,98,5.45464757612496,-1.0202739937481,0.0430142918780405,-0.423832965616994,-0.94298907946837,-0.149840025250529,-0.282285362507377
134.36496388889,97.590588888891,5.09190829891081,-1.6711877472381,-1.01410900846022,-0.281075132501881,-1.16684974443489,0.126901656979446,-0.0405640552664447
135.367687500001,97,4.72916902169699,-1.07818226979094,-0.193723011110751,-0.279088946562196,-0.628031144399441,-0.525565143470627,-0.115995859630646
136.370411111112,96.5851416666692,4.36642974448317,-1.19956167938089,0.159391313333853,-0.336431984775691,-1.21002654880951,0.127140086000199,-0.187554268690369
137.373134722223,96.4175819444417,4.00369046726935,-1.13776224635303,-0.0345078816501109,-0.26308322059907,-0.982313158643857,0.0567649834020684,-0.48700363990103
138.375858333335,97,3.80493507597229,-0.990560340277287,-0.0932385485627491,-0.687100802779381,-0.983815356943703,0.130277929635961,-0.236795978705671
139.378581944446,97.4230291666645,3.87342611222922,-0.743252672254948,1.39686645323561,0.035247090698078,-0.946785343155066,-0.0347251511860083,0.00733367603829644
140.381305555557,98,3.94191714848615,-1.07729594448329,-0.115610499449113,-0.427126014057793,-0.669354469555701,-0.485254557722213,-0.11407641744452
141.384029166667,98,4.01040818474308,-1.61187860000105,-0.185124824121781,-0.367218853923765,-1.28112345017748,-0.229695695690605,-0.320808296665002
142.386752777778,98.4311999999973,4.06157535480001,-1.01974730000085,-0.15417936000171,-0.276853140000545,-1.00085948500045,0.0198509155015263,-0.253182840010486
143.38947638889,98.5660763888909,4.08577508643058,-1.06577678356811,-0.0422544018861777,-0.260624293054127,-0.975521464351756,0.241016453124395,-0.345847703935063
144.392200000001,97.56335277778,4.10997481806113,-1.65072838009143,0.337076476811427,-0.337723242825776,-1.18926009799759,-0.440051694016737,-0.410405167716182
145.394923611112,97,4.13417454969168,-1.15360324697396,-0.133830293158183,-0.573476190543896,-0.618916097280388,-0.432479378332445,-0.169337182621755
146.397647222223,97.4420944444419,4.15837428132223,-1.49551846474293,-0.0623334223591977,-0.529609660252362,-1.29244505722828,-0.244390448060246,-0.428110349879758
147.400370833334,98,4.06613202954509,-1.02631636069183,-0.229926258960117,-0.261799850893254,-1.00464391909959,-0.0266965696770814,-0.901590213897983
148.403094444446,97.5524583333354,3.80261877135392,-0.973820312494437,-0.0535737166649406,-0.284686028666126,-1.01019198958403,-0.0536176687416659,-0.269980848927668
149.405818055557,97,3.539105513163,-1.48028485208664,-0.204604554552468,0.262159918734503,-1.13707239979125,-0.0399935988865634,0.372239579582995
150.408541666668,97.4529888888865,3.27559225497208,-1.89591068335109,-0.374920259464773,-0.356576784699119,-0.574146166673261,-0.465247669394541,-0.0240663925745762
151.411265277779,98,3.19107680937506,-0.391157558767041,0.318228339030877,-0.0736379161302765,-1.20017717498974,-0.309982916872433,-0.141037627737223
152.413988888889,98,3.35828097152781,-1.37846611182319,-0.0910001905058916,-0.32977277876413,-1.10519270833676,0.116392512633256,-0.227415022773853
153.416712500001,98,3.5254851336807,-0.951139679430666,0.098567214410342,-0.599797550676887,-0.908842184546722,0.0626503026617113,-0.269188771009397
154.419436111112,98,3.69268929583345,-0.921503332457453,0.0269818108659122,-0.0419835890951963,-0.86223019361073,-0.634441031112381,-0.670791772222635
155.422159722223,98.466606944442,3.8598934579862,-1.66545109824542,-1.32082536717931,-0.586086367284968,-1.21063870417683,0.998167351260037,0.00734252614323025
156.424883333334,99,3.97443699422918,-0.357119999074193,0.411908885601636,-0.14980240466169,-1.06189647291667,-0.231282262639132,-0.17843060325011
157.427606944446,99,4.0189353612813,-1.32044455209409,-0.091907776323574,-0.724534081442604,-1.24498076875078,0.23182060686192,-0.629256179029109
158.430330555557,99,4.06343372833337,-0.92717042221757,-0.187121977781959,-0.211980477770133,-0.947870488887798,-0.0152756431145329,-0.317889333319709
159.433054166668,99.4775013888866,4.10793209538545,-0.975788978647372,-0.0811794568577436,-0.392630009936641,-0.976236298277603,-0.253747851520875,-0.353027026537415
160.435777777779,99.5197750000025,4.14719201862502,-1.44628372493647,-1.60389174258848,-0.598189988716562,-1.18262443127002,1.08656391257861,0.0254722563255333
161.43850138889,98.5170513888916,4.17978554960418,-0.545043552099762,0.0956735971406565,-0.144135495231096,-0.955753472216623,-0.251181211269117,-0.204005517494956
162.441225000001,98,4.21237908058337,-1.44011685839705,-0.124578173566698,-0.263579014719013,-1.3434191027771,0.406279779447109,0.188441177495274
163.443948611112,98,4.24497261156253,-0.975729183333391,-0.103852914895799,-0.466992480208188,-0.870924812493165,-0.0507412492655852,-0.273193230208893
164.446672222223,98,4.22349604788189,-1.01750541742985,0.0146737987400462,-0.427842232915305,-1.09381666444541,-0.220110396504327,-0.548515133940907
165.449395833334,98,4.13617135539927,-1.25715734629325,-1.30822231388203,-0.18851655341138,-1.22292177290954,0.97267171241183,-0.0738443962936518
166.452119444445,98,4.04884666291664,-0.741999449163915,-0.0661091112466251,-0.149827860419552,-0.952945444666794,-0.423322961332852,-0.334510215334479
167.454843055557,98.4992902777758,3.96152197043394,-1.65822058796094,0.342376862282073,-0.722971712859734,-1.29518661619318,0.495448812127941,0.270855329391179
168.457566666668,99,3.97048217368065,-1.13653035647882,-0.112096606018764,-0.236405051850878,-0.943265618752763,0.0194451281114738,-0.278770261123492
169.460290277779,99,4.09167636293757,-1.02685413343762,-0.0207128010382209,-0.322601171565277,-0.987329093749702,0.0841117315816409,-0.234372736251759
170.46301388889,99,4.2128705521945,-1.5129673481499,0.661709984219698,0.00785149572678172,-1.12900543888971,-0.00858384387193422,-0.203216976634206
171.465737500002,99,4.33406474145153,-1.06330290145249,-0.104086823463559,-0.229438562779468,-0.674716338610308,-0.429144716736539,-0.119333468195731
172.468461111112,99,4.33676241713321,-1.09832804862964,0.188107800660454,-0.317277443616983,-1.32049348957849,-0.352521348490767,-0.364119091260547
173.471184722223,98.4843680555578,4.20723459194435,-1.05465607984647,-0.0675823670219634,-0.336681138893247,-0.930723741319076,0.0646351095503068,-0.21769068663315
174.473908333334,97.4816444444468,4.07770676675548,-1.01279687445058,-0.049708923113614,-0.208425939991871,-0.985481827771756,-0.103132841230572,-0.300642550002583
175.476631944445,95.9578416666718,3.94817894156662,-1.60254238334341,-0.774229251364041,0.2128821171091,-1.12188585519496,0.798336051538906,0.0352863826269098
176.479355555557,95,3.81865111637763,-1.40365248057302,-0.247426467356567,-0.303107159304167,-0.596367516878561,-0.497096378191369,-0.147430775333603
177.482079166668,95,3.73310109662496,-0.636826560798501,-0.352002301574747,-0.186957661798408,-1.44021085573101,-0.407458043818131,-0.44752784208844
178.484802777779,95,3.69402495749997,-1.15266349999998,-0.0993564568750983,-0.199999828129152,-1.05085825000024,0.100514109999875,-0.153122249999404
179.48752638889,95.5319736111087,3.65494881837498,-1.11105556692375,0.181786602283491,-0.147375078416268,-0.933361835277273,-0.128023960718967,-0.187446494374679
180.490250000001,96,3.61587267924999,-1.40989269442937,-0.386264827983793,-0.0225794070179691,-1.39949183194679,0.379272270246934,0.10313094066684
181.492973611113,96.5374208333315,3.57679654012496,-1.48079937086783,-0.246850240005224,-0.102062354286249,-0.602348273610604,-0.545861208196792,-0.0460868723728201
182.495697222223,97,3.58120069528893,-0.374335362217416,0.584828079439742,-0.129103433995106,-1.28233719999536,-0.483599771111891,-0.479087782507817
183.498420833334,96.4571319444467,3.62912286211114,-1.52461193055531,-0.0788546895146027,-0.168272717882076,-1.31447924767653,0.187179126154139,-0.524826675915687
184.501144444445,95.4544083333358,3.67704502893336,-0.985621709371796,-0.0227562567919405,-0.487201063752669,-0.967837572913952,0.0192082565377687,-0.168359035413353
185.503868055556,95,3.72496719575557,-0.967561100883103,-0.0522633896293423,-0.293497314858506,-0.874930599561112,-0.474042334761453,-0.383631698474673
186.506591666668,95.551038888887,3.77288936257783,-1.79574383607088,-1.27241374898783,-0.424810076946554,-1.32353189814783,1.11739388705178,0.202996412428587
187.509315277779,96,3.88835557607516,-0.452322542494704,0.218535520003438,-0.134204431250231,-0.939499806876091,-0.295598549372037,-0.504063981260456
188.51203888889,96.5564861111088,4.06784911880568,-1.57453145368576,0.226265812434303,-0.452652073590846,-1.3261608495462,0.184574318620834,0.394548250249023
189.514762500001,96.4407902777803,4.2473426615362,-0.937719254097417,-0.0633547189928532,-0.294648982499563,-0.936166883684551,0.0249703010506664,-0.375389356922259
190.517486111113,96.5619333333316,4.42683620426688,-1.05662942667358,0.136953951565816,-0.239666666677197,-1.01632329999331,0.204009906664988,-0.29595318666689
191.520209722224,97,4.60632974699741,-1.02119740114144,1.03181368042978,-0.475579231596023,-1.17074037408422,-0.0648266822252365,-0.147844848590116
192.522933333335,97,4.63323649613324,-1.0858972937652,-0.188558850630064,-0.220082451324687,-0.589706062480304,-0.547227032071211,-0.140519580128137
193.525656944445,97,4.52316150899993,-1.25342051941419,0.175945180012014,-0.507878108993696,-1.29653747222874,-0.210725189595335,-0.242964863887477
194.528380555556,97,4.41308652186662,-1.13808542500211,-0.140927764108009,-0.212346920834625,-0.982934836944356,0.0421054431987651,-0.289926521387586
195.531104166668,97,4.3030115347332,-0.952022302915122,0.0790109359616214,-0.511060399110178,-0.957399788454497,-0.0562713707118954,-0.560793969480101
196.533827777779,97,4.19293654759989,-1.41471980916847,-1.6931147166775,0.0784384228419338,-1.48959891001097,0.750634016279221,-0.124598291482769
197.53655138889,97,4.16715426846393,-1.42709193929442,-0.116498581187139,-0.446858266306814,-0.536199939265775,-0.653260858343865,-0.10040982469629
198.539275000001,96.4162777777801,4.21302486277781,-0.610218129625355,-0.18566633705782,-0.469766864799876,-1.3773313888911,-0.317209416669971,-0.219521111115455
199.541998611112,96,4.25889545709169,-1.2661148648835,-0.081562952381321,-0.200818451364753,-1.09137667916086,0.111080713059948,-0.289635122281459
200.544722222224,96,4.30476605140561,-0.997434102922809,0.0328601757520162,-0.305332502949226,-0.966499111158125,0.0179513078655665,-0.326787488421579
201.547445833335,96,4.35063664571949,-0.979435762141595,-0.409566448266034,-0.25427091935702,-0.801127764924901,-0.638202394785847,-0.821434041668259
202.550169444446,96.5946166666645,4.38380473180002,-1.900719004154,-0.878809635449868,-0.550347223389848,-0.949533854126934,0.565357073303122,-0.462681412275517
203.552893055557,97,4.40675105891668,-0.485842878005641,0.116538974951674,-0.0811609207866035,-0.971495222903943,-0.33363793956859,-0.206071745138345
204.555616666667,97,4.42969738603334,-1.40294458009451,-0.11772749914477,-0.302220298148401,-1.09946554999713,0.184882358608769,-0.336309884854343
205.558340277779,97,4.45264371315003,-0.992893779643243,-0.0533860427769436,-0.296348524392835,-0.915088478542187,0.0237677200974024,-0.301068484589811
206.56106388889,97,4.47559004026669,-1.07416388000012,-0.0394750510901171,-0.244288367552143,-0.941026808446009,-0.360393753770473,-0.273871266664657
207.563787500001,97.60823472222,4.46029290180552,-1.20053720786798,-1.69671394863555,0.0407738256346177,-1.31106005305518,1.56537918777909,0.0907395394771395
208.566511111112,98,4.41587224583331,-0.482814701852835,0.00801737189728086,-0.111171912639328,-0.918542840476134,-0.313028170241866,-0.158050640475468
209.569234722224,98,4.37145158986105,-1.71098039286863,0.352044989347336,-0.640020171439278,-1.24697429907528,0.316449213321079,0.131177852519471
210.571958333335,98.6164055555537,4.32703093388884,-1.04855858055856,-0.157863443550737,-0.225749921520297,-0.948897034728407,-0.0328770307488259,-0.215037540278869
211.574681944446,99,4.2446466252499,-0.968427279989763,-0.0762746723499922,-0.290652486780339,-0.999150292758923,-0.206030688190418,-0.400236445603525
212.577405555557,99,4.13460773616659,-0.978074112069345,-0.411608328315198,-0.557582429916601,-0.964399245049362,-0.335663318699439,0.0452013283680746
213.580129166668,99,4.02456884708328,-1.68308352378432,-0.435525790121315,-1.12330095402685,-0.601500357412416,-0.494428579153498,0.135833759843567
214.582852777779,99.6272999999983,3.91452995799986,-0.360703044166276,0.391961035000647,0.00262136085027988,-1.15445935999927,-0.462899773997482,-0.171412594000442
215.58557638889,100,3.80449106891655,-1.57367292778307,0.0240354571022242,-0.262258434857082,-1.35039919722834,0.357298354436062,-0.142143516245102
216.588300000001,100.63274722222,3.78658156131671,-0.987508060925222,-0.131804965908244,-0.333216882687522,-0.911978805556003,-0.105268246856475,-0.177333867663373
217.591023611112,101,3.83213128407503,-1.02697671319437,-0.12320688520798,-0.306970901108215,-0.988478677374528,-0.12445057176096,-0.312841307419722
218.593747222223,101,3.87768100683336,-0.925623860393111,0.782347716776353,-0.625823056002754,-1.07397126851982,-0.0806217861133838,-0.0128528457478505
219.596470833335,100.359081944446,3.92323072959172,-0.939644357833191,-0.0469219140373315,-0.101847990654065,-0.621710521997213,-0.515316092534904,-0.274945988012156
220.599194444446,100,3.96878045235005,-0.816934847910255,-0.114814144343112,-0.0981685961428262,-1.44299392082198,-0.497287847909512,-0.293774428357546
221.601918055557,100,3.54874156675633,-1.23516785640472,-0.0187239361282127,-0.379325427423154,-1.13211829444744,0.178506207224308,-0.519407122420112
222.604641666668,99.3509111111134,2.82563244822175,-0.920951662223044,-0.182462246444188,-0.321748705332207,-0.92174206333342,-0.0495229459113995,-0.330235571111558
223.60736527778,99,2.1025233296865,-1.0404350781255,-0.127653810939169,-0.395414686246408,-0.957934343753664,-0.26864539062454,-0.450246195314725
224.61008888889,98.3454638888907,2.22526341717208,-1.62747076065286,-1.50832566503529,-0.212822254586626,-1.26831983333262,1.24791693264015,0.0350015595947012
225.612812500001,98,2.88006366090575,-0.768013866375584,0.0424901048155593,-0.00519761484626495,-0.804604190244365,-0.45074373034248,-0.208714378747072
226.615536111112,98,3.53486390463942,-1.15706992304413,-0.286781743349369,-0.48359177582447,-1.37126525001673,-0.487705837506872,-0.14428498167075
227.618259722223,98,3.85789935170494,-1.16521890679606,-0.0326236167342178,-0.441570607150617,-1.06146768992565,0.0749446827315468,-0.41741094861311
228.620983333335,98,3.97932667420155,-1.0888105475703,-0.0454311092010986,-0.160295559163356,-0.957505941249035,-0.130366962844742,-0.432110200833489
229.623706944446,98.6681541666649,4.10075399669806,-1.15491106241694,-0.177302431246217,-0.420988027762202,-0.897123850487354,-0.216870756383935,-0.469346039016198
230.626430555557,99,4.22218131919456,-1.21106240832813,-1.79105641666642,-0.308300012658301,-1.39705967591555,1.41366216145207,0.527756449232323
231.629154166668,99,3.93940642630341,-0.828851697999432,-0.12795269949326,-0.0930450946901857,-0.736099283850485,-0.503443422536064,-0.171332220482999
232.631877777779,98.3236750000024,3.42216022534344,-1.69126967502177,0.169225447498568,-0.265188824987588,-1.30087235000684,0.430882706450158,-0.102784090066504
233.634601388891,97.3209513888905,2.904914024383,-1.13997252777788,-0.0477715711942748,-0.254805138191066,-0.987575000023192,0.100145134564295,-0.481628288136651
234.637325000002,97.6817722222204,2.38766782342303,-1.02554417443955,-0.0992495006597889,-0.190119942229861,-0.95567077388988,-0.276862434258126,-0.283355669261884
235.640048611112,98,2.4142214699517,-1.22965117938527,0.00426820293105537,0.109544252204997,-0.934181071019211,-0.554148559223461,0.281662231765533
236.642772222223,98,2.74172269978266,-1.60667809443603,-0.123069367798045,-0.497745105971189,-0.554973156421242,-0.429364796029554,-0.0419172999194888
237.645495833334,98,3.06922392961361,-0.765856161600935,-0.407688308135393,-0.418054824452319,-1.30906605032861,-0.407721696111933,-0.181204401858372
238.648219444446,98,3.22297293333341,-1.55735300003409,0.130622399996742,-0.348079833307914,-1.34977875000022,0.354233324997824,-0.136540583333035
239.650943055557,98,3.28393852888896,-0.908511447870336,0.00426152474397812,-1.05762136622686,-0.88580544504303,0.006350090898689,-0.403839495994663
240.653666666668,98.6981138888868,3.3449041244445,-0.920717031351556,0.0763400349200665,-0.334192244595136,-0.982378935044991,-0.340753252455317,-0.413624428018112
241.656390277779,99,3.51550530800017,-1.25142162501121,-1.74330993747684,-0.099490923564596,-1.42272766665625,1.45619133330352,-0.20427861837892
242.659113888891,99.7035611111096,3.74257541214848,-0.773463829978889,-0.00587750795982807,-0.139278318530813,-0.675512426108032,-0.547810731805132,-0.141177411247626
243.661837500002,100,3.96964551629658,-1.06834451621151,-0.0439169501072851,-0.218867475909208,-1.34991125695994,-0.388327573469001,-0.612132450655432
244.664561111113,99.2909916666686,4.04566894177778,-1.20654093751554,-0.047358440030825,-0.267376268050346,-1.00058193418796,-0.0215239628097052,-0.489015879086441
245.667284722223,99,4.04668503503704,-1.02904355926033,-0.0708967658228569,-0.151076101249249,-0.99084753992439,-0.148344826941135,-0.175026
246.670008333334,98.2855444444467,4.0477011282963,-1.16381587778077,-0.310158169166093,-0.17404822976702,-0.923622592771838,-0.629624015543691,-0.772781870010513
247.672731944446,96.5656416666698,4.1602618702919,-1.78261897636276,-1.17846849093041,-0.390201239465275,-1.33446194445025,1.11913001618683,0.21415456598952
248.675455555557,95.280097222224,4.32620260069465,-0.534047236117064,0.0780615034643038,-0.440708118067831,-0.888259881943381,-0.288325094914754,-0.334340340270001
249.678179166668,95,4.26622303960631,-1.63287434120229,0.328229564736083,-0.353045252103979,-1.20742597407642,0.480233614385851,0.164103881561447
250.680902777779,95,4.10079035583319,-1.06602889999766,-0.108275658007939,-0.210592450001028,-0.98767239000416,-0.108930532743674,-0.456499545
251.68362638889,95,3.93535767206007,-1.0803419583325,-0.268908191453833,-0.272949821260548,-1.03575563720288,-0.148347414079247,-0.644951042083117
252.686350000002,95.7307972222206,4.04489132421329,-1.41314210187834,-0.745349355277724,0.118904047356931,-0.933806888751557,0.577519693947012,-0.174350970820869
253.689073611113,96,4.27800785173639,-1.42288503124706,-0.229067819793858,-0.194311592709032,-0.565239671528734,-0.533515101384493,-0.0676802269433425
254.691797222224,96.7362444444425,4.5111243792595,-0.708136577616692,-0.0664289419069697,-0.299835711038812,-1.37613922222173,-0.447700706667062,-0.18410139555532
255.694520833335,97.7389680555534,4.56087260849535,-1.39021011631151,-0.0450458056360801,-0.118644791554106,-1.01240766423638,0.214021603610698,-0.191071965207797
256.697244444445,98,4.53130897402776,-1.05264309750431,-0.082545997400754,-0.267697281918626,-0.935983665698561,-0.146652097954014,-0.278116085888936
257.699968055557,98,4.50174533956014,-0.994684636680751,0.026077148942625,-0.290276004823354,-0.976412041111476,-0.262387645231096,-0.435609455738839
258.702691666668,98,4.50587731388891,-1.32281357605839,-0.253237836901018,-0.521177488181293,-1.05369551382977,0.462724899775548,0.041302603040413
259.705415277779,98,4.52402661125002,-1.28632572082874,-0.266347788123032,-0.464813647921848,-0.630747062501052,-0.411099320002595,-0.0837371876911166
260.70813888889,97.2474138888911,3.94500304635583,-0.713880979930702,-0.353227276512445,-0.686056958645486,-1.20463057916065,0.065048586808331,0.129976740253692
261.710862500002,96.2446902777792,3.12401139131589,-1.35336643287416,-0.0682914296290601,-0.233380363979838,-1.13818240000542,0.208673078960666,-0.194570616599034
262.713586111113,96,2.30301973627669,-1.02865859444471,-0.00394808311188501,-0.459793891114789,-0.930944428332272,-0.050043701582688,-0.505395793338044
263.716309722224,96,2.60445636410964,-1.00681422453714,-0.281680096527561,-0.0404624786806205,-0.898446330093527,-0.678752473496793,-0.529650678239681
264.719033333335,96,3.34283362082941,-1.59579240738048,-1.54615178522029,-0.433140554251811,-1.31189605416115,1.10438040413532,0.413205901401164
265.721756944446,96,4.08121087754918,-0.539617908318787,0.0446877705756035,-0.0320482543200997,-0.87850715770203,-0.388309795418786,-0.244461600416434
266.724480555557,96.7689277777763,3.575722466068,-1.65854181667589,0.23690368755191,-0.403362553608407,-1.28429853610942,0.543805183064088,0.231037247284969
267.727204166668,97,2.60536426631471,-1.16396690949299,-0.0991827763222117,-0.23315535916868,-1.03093648426753,0.0385368419907791,-0.454884190994202
268.729927777779,97.7743749999981,3.15535343343872,-1.03828766249938,-0.00882912999992024,-0.399863742507019,-0.950266593748273,-0.120417683128851,-0.264559893751759
269.73265138889,98,4.25807114985866,-1.38576360000521,0.3965580744494,0.489564470928926,-1.14574148940396,0.153077177855711,0.357268343838479
270.735375000001,98,3.99668389296242,-1.0402520099937,-0.150728998551037,-0.148765716107373,-0.613461805558871,-0.488358261666046,-0.180632300004119
271.738098611113,98,3.2530473509017,-0.832301725833863,-0.144085041053658,-0.0371513179134258,-1.30764327847186,-0.419145567364009,-0.424603192654165
272.740822222224,98.7852694444427,2.50941080884165,-1.2753357972268,-0.0801949593462162,-0.0993409585816849,-1.12820477500846,0.109085337148079,-0.384618517766759
273.743545833335,98.2120069444463,2.84265526059103,-0.975961560177511,-0.0278658478733197,-0.285538819446833,-1.00748289409991,-0.136362574644196,-0.238419178821379
274.746269444446,98.7907166666646,3.54070631608396,-0.972148148338652,-0.20196797997242,-0.0307301288583049,-0.840540263892371,-0.545374470966678,-0.692945786673712
275.748993055557,99,3.35682926085846,-1.96130053888691,-0.877159788889582,-0.199492189833392,-0.729853624133042,-0.204351748977225,0.126696018197323
276.751716666668,99,2.88271312702247,-0.33052939685288,0.266388034723243,-0.192569289030007,-0.970574758460986,-0.23467400353574,-0.336998367976817
277.754440277779,99.7988874999983,2.40859699318691,-1.58181518124378,0.168920698122117,-0.309274801254118,-1.15638962916968,0.438063425418913,-0.201978062344243
278.75716388889,100,2.78000559250067,-0.985805353332764,0.0041528208882512,-0.450026841109626,-0.878079015278212,0.0310725569441501,-0.262136359722995
279.759887500001,100,3.41763252318805,-1.01986140092436,-0.0151812828563371,-0.342576569389469,-0.955972936839842,-0.0402141311977071,-0.237121177464618
280.762611111113,99.192941666668,4.05525945387601,-1.39094988583875,0.938663721218116,0.261794727853705,-1.4019996572898,0.145758502744204,0.128718368342839
281.765334722224,98.1902180555571,4.34228850931275,-1.80875101213593,-0.273313363628183,-0.407379312472319,-0.609501636562068,-0.419708645632274,0.0720292327064784
282.768058333335,97.1874944444462,4.52381657825022,-0.332645663054408,0.552963075211434,-0.187789628819916,-1.23374828056079,-0.443559262158165,-0.175701490233932
283.770781944446,97,4.43162942472205,-1.43946727083397,0.0118524318861363,-0.329251131953911,-1.26074422395637,0.265078717179587,-0.321951056255216
284.773505555557,97,4.25957542270356,-0.919168856948904,-0.0799863836920946,-0.443552943275741,-0.917354108145228,0.0388025579845916,-0.262311057398875
285.776229166669,97,4.08752142068492,-0.996230905185811,-0.0622004225565392,-0.470751450890634,-0.998120139557382,-0.266444738472432,-0.413099085053623
286.77895277778,97,4.04748978266666,-0.942581900001263,0.601089289987422,-0.375173711997998,-0.990834472012187,-0.214972592018647,0.202088208007634
287.78167638889,97,4.04420419163426,-1.35099241121474,-0.179267804513506,-0.682146828044654,-0.595145117334898,-0.544913912766735,-0.0465009501130234
288.784400000001,97,4.04091860060185,-0.756382768444329,-0.279005549784741,-0.467603189451169,-1.41606512498695,-0.503883002797278,-0.245884559718323
289.787123611112,97,4.0949358808195,-1.59710097440059,0.124033240046744,-0.201253908977464,-1.30160677083212,0.525194633159406,-0.18573599127207
290.789847222224,97.834294444443,4.16414720687048,-1.04797893149045,-0.070994481357262,-0.161232810380487,-0.92386003033331,0.0868895,-0.165319678889979
291.792570833335,98,4.23335853292139,-1.06137880083593,0.00335492135310298,-0.18414791117942,-1.02066750590345,-0.0293706992532204,-0.323627974858101
292.795294444446,98,4.14764769958319,-1.37673825833646,-1.31580234257645,0.241513165435359,-1.26976340779607,0.284951523509627,0.918855870639786
293.798018055557,98.8424652777758,4.02285874618044,-1.44872827083079,-0.112702085000352,-0.152291718748801,-0.544995783335762,-0.463065589227093,-0.12524183132094
294.800741666668,99,3.89806979277768,-0.627917889134475,0.174817721357127,-0.373652838225167,-1.43179520000305,-0.489975333054209,-0.125612727263227
295.80346527778,98.1520875000015,3.91591638050008,-1.16890235312501,-0.0443009909062398,-0.0716843421770749,-1.03050811250004,0.16623375500003,-0.201857889375061
296.806188888891,98,3.96793768144451,-0.95489107053774,-0.205550404571258,-0.0901516138393386,-0.962014110703279,-0.206794373850832,-0.553813135048773
297.808912500001,97.1466402777796,3.51079685326325,-0.99251674529835,-0.093754584280505,-0.491789784440604,-0.707472461847872,-0.378412116952536,-0.534091749661356
298.811636111112,97,2.9358852708328,-1.7438518054947,-1.25958645842405,-0.459238937559315,-1.23624513888884,1.16609703704153,0.366171888910052
299.814359722224,97.8588069444431,2.36097368840183,-0.539352038663798,0.198497597159165,-0.0728171069207256,-0.938590942005682,-0.418328253989472,-0.291357571799627
300.817083333335,98,2.27908897729865,-1.66869995346465,0.49039055929932,-0.305412605072678,-1.29693677986562,0.0344438281831855,-0.144448293680016
301.819806944446,98,2.30521243417712,-0.975466868773004,0.0396034803507619,-0.383116091028429,-1.03201819510645,0.100030693665715,-0.465102953758371
302.822530555557,98.8669777777759,2.33133589105558,-0.957858367783431,-0.0692434598925849,-0.326683636647296,-0.966959490740092,-0.0723556731828989,-0.314430919268237
303.825254166668,99,2.35745934793405,-1.41364095254738,0.0288555571564426,0.377410724154109,-1.27636134495519,0.323950891254845,0.38383488654115
304.82797777778,99,2.9749207615012,-1.61506401721003,-0.383975573922031,-0.901047960617897,-0.524020101251503,-0.617850338124725,-0.338023126244028
305.830701388891,98.1248513888904,3.71250419536217,-0.331053607079096,0.544049995410791,-0.0284905887820604,-1.37297989004607,-0.466182771898021,-0.599560553797372
306.833425000002,98,4.45008762922314,-1.27610397407708,-0.0516834415482206,-0.387234520075808,-1.09524074583403,0.15211965305603,-0.399497638909167
307.836148611113,98,4.45472244651374,-0.947503007909432,-0.056263067104602,-0.358302788543505,-0.91846566240368,-0.0540912668276762,-0.294132622613175
308.838872222223,98,4.31903054504618,-1.16764329512847,-0.297748130576199,-0.468348883271528,-0.932032651392884,-0.495968152744437,-0.379107342930302
309.841595833335,98,4.18333864357849,-1.96974589756263,-0.629187272051647,-0.574899176833594,-0.752416957133754,0.275804134220256,-0.00778962853651069
310.844319444446,98,4.07358445333319,-0.300777346279157,0.363690805831765,-0.158506302915011,-1.10468318330741,-0.233266746655743,-0.190211816668752
311.847043055557,98,3.96849901888876,-1.79973211054538,0.371026332367335,-0.314928835601813,-1.35129535301039,0.495874182790222,0.0712574123822917
312.849766666668,98,3.86341358444434,-1.03914133285516,-0.0385013471277488,-0.537354992504946,-0.960825845971934,-0.0440269045345655,-0.270704858472165
313.852490277779,98,3.89000010781254,-0.948787918752192,0.0538117431252457,-0.339422528124184,-0.958821803124589,-0.176793070312007,-0.536476750000981
314.855213888891,97.1003388888903,3.93880767958341,-1.20256303276461,-0.374164009878727,-0.386901844296946,-1.10633137780731,0.25626202936353,0.0901076655188034
315.857937500002,97,3.98761525135423,-0.739300662489267,-0.046082822991138,-0.390067386945244,-0.694558477430075,-0.477176887778247,-0.158822019305208
316.860661111113,97,4.03642282312506,-1.11065123889868,0.158660656091517,-0.252896984721807,-1.31541388333091,-0.392594603940216,-0.539854084152005
317.863384722224,97,3.94110637987141,-1.15075863264528,0.00803161962836351,-0.339605976098532,-0.985146888784876,0.184881696492746,-0.254460457881276
318.866108333335,96.0894444444457,3.82357965222202,-0.940994055543771,-0.0662206511261211,-0.42164204439096,-0.957783744444023,-0.175452733334348,-0.437063555564062
319.868831944446,96.9132791666652,3.70605292457274,-1.19148022771532,-0.299528446462314,-0.51185733780662,-0.842927734340076,-0.662445230618172,-0.475061381534757
320.871555555557,97,3.58852619692345,-1.93602348060889,-0.329112267541641,-0.365708866392111,-0.602542331460735,-0.207142396785922,0.0626518931543922
321.874279166668,97.9187263888871,3.51968426074067,-0.406355876839619,0.291331680035122,-0.336193448088641,-1.20376921835526,-0.358539438207336,-0.185309156211048
322.877002777779,98,3.45764909333327,-1.4752807666756,-0.136038476002293,-0.229454895004158,-1.21950565003382,0.101465438036567,-0.33298853994746
323.879726388891,97.0758263888902,3.39561392592582,-0.969991237862934,-0.126602690610407,-0.232932918368062,-0.936601200810413,-0.0215622670723192,-0.306726106480148
324.882450000002,97,3.33357875851843,-0.908405010257351,-0.0913965493576044,-0.341665349317929,-0.817895603877778,-0.45631984477512,-0.500974879597937
325.885173611113,96.0703791666683,3.27154359111103,-1.86847654892543,-1.08138008573459,-1.01459632316066,-0.930738365365419,0.567821375886794,-0.242778124667077
326.887897222224,96,3.20950842370363,-0.350178742228924,0.337546845438806,-0.223891620863698,-1.16065598610115,-0.327699468906775,-0.398338492238997
327.890620833335,95.0649319444465,3.27785892430286,-1.64130008611434,0.302242526118641,-0.288446546255385,-1.31136661666706,0.642235502178182,-0.102095164725479
328.893344444446,95,3.36172873258347,-1.02558782500074,-0.0430691808336995,-0.191342501388157,-0.898604094794261,-0.0171465151524484,-0.292734890634565
329.896068055557,95,3.44559854086401,-0.991736362834297,-0.0278906678263978,-0.231499141323658,-0.989348391563364,-0.151551579998539,-0.465058180898574
330.898791666668,95,3.52946834914455,-1.49136942405146,1.439416923256,-0.201967366803548,-1.09137326945006,-0.429594063628015,-0.121430960273041
331.901515277779,95,3.61333815742509,-0.938007821412762,-0.0630706921590184,-0.431217091263512,-0.644404636665895,-0.527816637498837,-0.154705328956377
332.90423888889,95.9486861111091,3.79448070156684,-0.922867155098912,-1.89132843335287,-0.874495696011861,-1.28214742118307,-0.0825296555264317,-0.808312699368211
333.906962500002,96.9514097222209,3.98557174558364,-1.15676594907792,-0.112881659156361,-0.474374928232727,-1.01522468495853,0.081228014596712,-0.409935464146373
334.909686111113,97,4.17666278960028,-0.966132860005865,-0.101932648443156,-0.384485211116661,-0.949796545554672,-0.196539315557269,-0.301865160001874
335.912409722224,97.9568569444427,4.36775383361691,-1.18366327015031,-0.411466959724493,-0.66101178800443,-0.905976379353522,-0.609499911387325,-0.339519175307259
336.915133333335,98,4.55884487763354,-1.87419412124135,-1.03877793554186,-0.671570716295473,-1.09232807796863,0.64181838944762,-0.0976609644205226
337.917856944447,98.9623041666655,4.3656548808746,-0.585373037852969,0.00437518234562963,-0.12237857476236,-0.840115421935788,-0.371954142652838,-0.228430341394768
338.920580555558,99,4.13941035249964,-1.65369111107771,0.248366915231949,-1.00433565775661,-1.24745225693579,0.301164793672235,-0.0789252815529492
339.923304166668,99,3.91316582412468,-1.19861754504635,-0.0856268855937371,-0.168671941678129,-1.10931430833789,-0.00490223255124291,-0.161552426429421
340.926027777779,99,3.68692129574972,-0.992908950012409,-0.168528344991787,-0.246912832486123,-0.981573166750466,-0.104610793651838,-0.496022491497144
341.92875138889,98.0268013888908,4.05183453449116,-1.05253889381885,-0.400967145311654,-0.441816041495192,-0.949311437483347,0.192007534734627,-0.748458410229741
342.931475000002,98,4.46011016481553,-1.13872750094499,-0.426942340432706,-0.933601928523147,-0.838801357312243,0.719925591460485,0.170115702050364
343.934198611113,98,4.86838579513953,-1.28967499305035,-0.252054044441215,-0.188411407637505,-0.49552935311911,-0.664493166689486,-0.113236908027923
344.936922222224,98,4.5538766264995,-0.338466982791169,0.133679840991535,-0.13600065597874,-0.95597288870642,-0.365195878522336,-0.172279334906189
345.939645833335,98.9840930555538,4.19307661674957,-1.96821145194612,0.699882872553689,-0.516466136645289,-1.43108052083053,0.459594094372665,0.302605720789431
346.942369444446,99,3.83227660699964,-1.1397347125015,0.00430981730389073,-0.0793799490034461,-1.04442791500911,0.388731414175847,-0.148654820834613
347.945093055558,99.9895402777765,3.31840317514956,-0.955697085405168,-0.161730548422125,-0.298520108917926,-0.996100298818933,-0.32142054041476,-0.168718607707998
348.947816666669,100.992263888887,2.79612622627234,-1.02161390393839,-0.0712292163113078,-0.524245450034681,-0.962409762898573,-0.410025736106114,-0.521965202388373
349.95054027778,101,2.27384927739513,-1.15636162875394,-2.00913127245108,-0.270768341254344,-1.32179517916632,1.36920828749961,0.243903766087965
350.95326388889,101.997711111109,2.37447720260146,-0.834604004441993,-0.00111702570396421,0.0684557182219707,-0.769640127399594,-0.52469922223212,-0.118574885923004
351.955987500002,103.000434722221,2.50370143847124,-1.36526667022296,-0.0858240762794805,-0.505449891548037,-1.60975350601925,-0.611970180740016,-0.266890375088073
352.958711111113,104,2.63292567434091,-1.17030878229927,-0.138145209202004,-0.171287041145563,-1.05526150333614,0.1432896541169,-0.136708812108918
353.961434722224,104,2.76214991021057,-0.993259142360839,-0.0763540385332873,-0.329891001147733,-0.962936740450515,-0.0305438144221375,-0.227006190626259
354.964158333335,104,2.89137414608024,-1.19199091943503,-0.250746932065902,-0.223627715729143,-0.89947774522725,-0.519093030046675,-0.574227384904774
355.966881944446,103.988670833335,3.0205983819499,-1.35866476874011,-1.85177794048675,-0.47098443262008,-1.28379728020693,1.18037572291295,0.280791131864344
356.969605555558,103,3.14982261781968,-0.892376407376381,-0.0367284973953691,0.0630344729517337,-0.668120645826502,-0.539602317584185,-0.125374226116056
357.972329166669,103,3.27904685368935,-0.714435633878478,-0.308646125569733,-0.38091202070904,-1.46812085433205,-0.600454820038022,-0.474243007773969
358.97505277778,103,3.40827108955901,-1.54679510001241,-0.0226248359928821,-0.240879990700057,-1.25490824999393,0.333247666654156,-0.273268116652823
359.977776388891,103,3.53749532542868,-1.09286803444465,-0.122245880456616,-0.125819042944818,-0.964792674027229,0.0172860938587837,-0.274168211967086
360.980500000001,103,3.66671956129835,-0.968716987833666,-0.11309245876851,-0.25919354427618,-0.934234492500276,-0.13380320293961,-0.307485038410673
361.983223611113,103,3.79594379716813,-1.06367509833501,-0.000440280837280725,-0.237739921374267,-1.03375889749647,-0.0468232734983123,-0.209099569581244
362.985947222224,103,3.92516803303779,-1.06586457962009,-0.0299961794916055,-0.119281768884883,-1.05348070416559,-0.360437899572066,-0.776480694179592
363.988670833335,103.033118055554,4.05439226890746,-0.854920570561737,-0.392566103889388,-0.253922908124153,-0.953567315846144,-0.870803120611884,-1.2401822512881
364.991394444446,104,4.18361650477712,-1.02078787902107,-0.782053921534571,-0.706317443071201,-0.98452809706797,-1.04712370277435,-0.656646375751686
365.994118055557,104.038565277776,4.31284074064679,-1.60231899306091,-1.16415972012993,-0.262051497742819,-1.19764327641308,-0.485282187378784,0.091449292075604
366.996841666669,105,4.44040989644338,-1.57641902224272,-2.03853328585281,-0.320423903709795,-1.32320759448219,0.808936971024669,0.61198339102673
367.99956527778,105.044012499999,3.84457147224904,-1.67578998125248,-0.802738606279847,-0.060652066291125,-1.55895526251937,0.88330182052717,0.413066810013099
369.002288888891,106.04673611111,3.24873304805471,-1.57734134027929,-1.11112033333609,-0.261466970623221,-1.39460236110789,0.543387398610488,0.40814981527317
370.005012500002,107.04945972222,2.66910015042711,-1.73236678130508,-1.54523076671594,-0.434867106214158,-0.963335935180651,0.222194971009817,0.445228797501637
371.007736111113,108.052183333332,3.62680815622409,-1.59032363416561,-1.12545640583283,-0.398445340445227,-1.23285158710024,-0.299311295053068,-0.516608542748189
372.010459722224,109.054906944443,4.58451616202021,-1.37302700738461,-1.75450511068411,-0.809027288021737,-1.8292345478949,-0.379530208759506,-0.103848110740309
373.013183333335,110,5.51222905410174,-1.55358645138543,-0.397439972981887,0.307225693067889,-1.1573731648157,0.398988456608893,0.330127155294003
374.015906944446,110,4.85555639114492,-1.79111312504771,0.820110486415701,-0.0037440041615114,-1.1538349720855,0.278601753356002,0.0744660357188279
375.018630555557,110,4.1988837281881,-1.29867922223569,-2.15759334074089,-0.406454779992165,-1.07732290963022,0.508155345843002,-0.0958940490633542
376.021354166669,110,3.54221106523068,-1.75782327314492,-0.741102098527832,-0.251877752105309,-1.02892222406345,0.201691690333075,-0.00570533178796248
377.02407777778,110,2.88553840227386,-1.60661725008791,-2.0697603999722,-0.306326006278708,-0.96772918330788,0.445698851184759,0.091346140350467
378.026801388891,110,2.27137304479443,-1.78314320730525,-0.469972464538981,0.0860663849238828,-0.901120668240558,-0.383660208901423,-0.228193784757684
379.029525000002,110,2.93640315836896,-1.35970968053878,1.32183956956153,0.295795218059051,-1.29091168053722,0.385054418029622,0.303491293038369
380.032248611113,110,3.60143327194349,-1.23852630308416,0.957927913080691,-0.383875700162164,-1.31547164838358,0.305726111049556,0.343425400989448
381.034972222224,110,4.26646338551862,-1.78628729236323,-0.597731069523961,0.0630655750369243,-1.09275506589263,-0.388775779638861,0.215791861259505
382.037695833335,110.082143055554,4.90238158985068,-1.67165620622605,-0.507276147386094,0.279372677922467,-1.54392207639262,0.473590055717474,0.381099448655513
383.040419444446,111,4.89079762533332,-1.76766348887344,0.399928818547381,0.724779868894444,-1.28335646666225,-0.215019348910534,0.433560775533763
384.043143055557,111,4.87921366081596,-1.61992369443543,-1.60104378462947,0.111435772137946,-1.64687120153108,0.952033496778072,0.722195770281015
385.045866666669,111,4.86762969629859,-1.7430835707914,-0.157518449763742,0.595160495511878,-1.39718428979991,-0.0792923480428026,0.100088663504527
386.04859027778,111,4.86031685578138,-1.06247935010834,1.4941002182574,-0.131029536770496,-1.05072368583143,-0.173300360665739,0.0805156637536231
387.051313888891,111,4.92798816548622,-1.03667450243839,1.74932958811964,-0.0814646772055844,-1.11129674171174,-0.0937433520635045,-0.200135494165896
388.054037500002,111,4.99565947519107,-1.55767034514916,0.445960871685507,-0.826341979227085,-0.895756890828398,0.499980323742626,0.178622685376651
389.056761111113,111,5.06333078489592,-1.91843921877357,0.284427325116721,0.62524391589051,-1.35110347917801,-0.117624985387368,0.0783646854482825
390.059484722225,110.896068055556,5.1248720320555,-1.89961965661672,0.334349235839505,0.580439449552446,-1.14057534282533,-0.291348525277745,-0.596965242167404
391.062208333336,110,5.09787871244439,-1.36174854000653,-0.164855424235767,0.0884426791389114,-0.911257571342205,0.601985494101839,0.100108220290388
392.064931944446,109.890620833335,5.07088539283329,-1.47654042778535,-0.85718007215276,-0.0550876419353641,-0.615788920220425,0.600548910303447,-0.0253595270267799
393.067655555557,109,5.04389207322218,-1.66245396371189,-0.269989049427879,-0.137020633793587,-1.07598532777764,0.177432153428644,-0.679580708910013
394.070379166668,109,5.01590391138884,-1.76474971348825,0.029260251627677,-0.0620582827699825,-1.12145643228057,-0.448252457490027,-0.256644282533623
395.07310277778,109.117549999999,4.97575485799992,-1.37561416661612,-1.17070428370306,-0.285131075014367,-1.49224179997931,0.552017595110975,0.432630591716633
396.075826388891,110,4.93560580461104,-1.46391120908251,-0.844259220875233,0.00673422152531797,-1.20227334420958,-0.356482806597846,0.32679813803704
397.078550000002,110,4.89545675122216,-1.51076243702584,-1.0601476185189,-0.307465515316283,-0.994500813603654,-1.14479543112593,-0.131125860689529
398.081273611113,110.125720833332,4.86763870656681,-1.43401904165785,-1.33308018697504,-0.833459826843247,-1.21699828457885,-0.297908959549316,0.473406496222387
399.083997222224,111,4.97006892888902,-1.03661302225875,-0.786286666672783,-0.687391488881771,-0.945024799978898,-1.29453597043474,-0.783243845967025
400.086720833336,110.868831944445,5.07249915121131,-1.05573577964206,-0.809015043105367,-0.622880973463774,-0.825380727401478,-1.32773135940938,-0.860070455021747
401.089444444447,110,5.17492937353351,-1.1175434978326,-0.826954675552257,-0.632197128100258,-1.04574262166226,-0.774734169651305,-0.922765477040648
402.092168055558,110.136615277776,5.27735959585572,-0.831797460025724,-0.596682349805988,-0.597362527829397,-1.01836373018809,-0.712527854183543,-0.729148136876759
403.094891666668,111,5.35479745790257,-1.09954014878242,-0.862230639598787,-0.868323840112459,-1.50775694277249,-0.388105174219181,0.0587931504465531
404.097615277779,110.857937500002,5.20746978453107,-1.32527511956597,-1.02514496122971,-0.804535078651254,-0.959867820830508,-1.27103250002588,-0.22605117503609
405.100338888891,110,5.06014211115944,-1.39034103777665,-1.58673971450131,-0.0771183204436727,-1.18776615135315,-0.232115557805995,0.275870224626236
406.103062500002,110,4.91281443778794,-1.53233515220958,-1.34047643194231,-0.48473994267925,-1.23892865777409,-0.473865058451024,0.423032553362497
407.105786111113,110.150233333332,4.79546920886686,-1.57884764166194,0.803454716548223,0.70556579078797,-1.56483676659345,-0.896016859420467,-0.282251683022336
408.108509722224,111,4.91842117261406,-1.29961448502119,1.41349378769826,-0.137984119909692,-1.35973919775517,0.25353773060119,0.144451278194065
409.111233333336,111,5.04137313636137,-1.60731907778664,0.558756447152901,0.688922415867412,-1.80684404780648,-0.655451094095107,-0.3129399615796
410.113956944447,111,5.16432510010857,-1.79370749861276,0.586983420954163,0.476038000007033,-1.52688840188978,-0.500252875230583,0.273420639385276
411.116680555558,111,5.28727706385577,-1.51132519725489,-0.98687111364704,0.0537244732586206,-0.737705628110186,0.0535016075373033,-0.104770416765986
412.119404166669,111.163851388887,5.40531887218068,-1.36731816366019,-0.270796176176457,-0.37608333309718,-0.885371787220917,0.454439881688146,0.0846295424824066
413.122127777779,112,5.48883572175011,-1.66634334166656,1.58219457499849,-0.332703829166871,-1.06793629000675,0.170150465236491,0.00261286748885704
414.124851388891,112,5.57235257131962,-1.60652223612896,0.846429356009699,0.460188395178782,-0.837224392357627,0.49677329253018,0.0851492524600324
415.127575000002,112,5.65586942088905,-1.54505242892795,0.282909618229851,0.278159389340597,-1.6369501628851,0.226167900954382,-0.146200342140436
416.130298611113,112,5.73636674014177,-1.94336759374059,-0.813813731023422,-0.40351608912348,-0.955736517494894,0.251827543784205,-0.115509384127089
417.133022222224,112,5.79757900570565,-1.56544111758718,1.65736380353111,0.236123790995686,-1.18642491326517,0.124526958659975,0.111894689598349
418.135745833335,111.819806944446,5.85879127126953,-1.57721643936159,-0.792445733731525,-0.140926524003613,-1.00198817328498,0.797064052621436,0.220744564457476
419.138469444447,111,5.92000353683346,-1.35160583335394,-0.625620478825447,-0.258785937504383,-1.06525583330014,0.369002020869846,0.0874278333502448
420.141193055558,111,5.98121580239733,-1.72181084298984,0.807361667231598,-0.386771402035564,-0.995905558805597,0.423784525090398,0.0202650684235202
421.143916666669,111,6.00567708309969,-1.25994774165942,-2.15551693249988,-0.408377259476228,-1.19155301239703,0.810274562398894,-0.00615099692124526
422.14664027778,111,5.82016920414973,-1.67877583749954,-1.52070826875078,-0.515902510624698,-1.07017210262175,0.805637188377495,0.157607085879211
423.149363888891,111,5.63466132519959,-1.72141574077809,-0.0487200720546501,-1.16043183710904,-1.46813204116533,-0.105684542807185,-0.409361478381398
424.152087500002,111,5.44915344624963,-1.8872774704785,1.61463035413375,0.608226126759223,-1.36222606714775,-0.363344636146145,-0.037556865462592
425.154811111113,111,5.26364556729966,-1.55147948331522,0.688479872387648,1.09740379462273,-1.37352364722857,-0.151133830839498,0.336886596156195
426.157534722224,111.201981944443,5.14021857037185,-1.39928385053067,0.73018576831466,-0.070564329322631,-1.12775427909564,-0.0909637326253901,0.315883093670301
427.160258333335,112,5.3366546325975,-1.74065008193721,-1.02882255693212,0.288050901220426,-1.45245231470532,0.681614582984592,0.329464880951025
428.162981944447,112,5.53309069482334,-1.39644564790619,-0.855821821048915,-0.434196656366519,-1.29449916388858,0.375758103054973,0.59658499055518
429.165705555558,112,5.729526757049,-1.49410632407519,-2.11039015972782,-0.373551139351308,-1.03791923654406,-0.222317716975914,0.0168822883252573
430.168429166669,112,5.91006730061685,-1.37288158612578,0.183458763888722,-0.341083856611882,-1.45406717418051,0.555869105990397,0.544249202970777
431.17115277778,111.784400000001,6.01483587440017,-1.43243146666615,-0.749610506666628,-0.268348146659906,-1.49135489999469,0.897996039941979,0.472384639983657
432.173876388891,111,6.11960444818348,-1.26310761018699,-1.04162250535838,-0.495546887006608,-1.20300874842972,-0.320604393621501,-0.0254715389212558
433.176600000003,111,6.22437302196689,-1.56438557664191,-1.10896372009521,-0.253115144771715,-1.62069355611126,0.955308457476207,0.135375916681362
434.179323611113,111,6.3291415957502,-1.37169392112651,-0.762636409367218,-0.498189683493146,-1.12314423914747,-0.755284985260572,-0.620711134637256
435.182047222224,111,6.37220921651349,-1.15479388183614,-1.03225052419218,-0.82496824408168,-0.987444396507815,-0.794041907553269,-0.115055302385028
436.184770833335,111,6.14700000026701,-0.988022176781018,-0.733610242433915,-0.552370115773382,-0.96936460158156,-0.848918672360595,-1.03247846519599
437.187494444446,111,5.92179078402052,-1.05322845971863,-0.771480799166035,-0.764814231114622,-0.97680431297265,-1.81558909217931,-0.404546471315068
438.190218055558,111,5.69658156777383,-1.1014747308953,-0.82363829812732,-0.168781396289936,-0.952857360062711,-0.991895360105777,-0.610342879441045
439.192941666669,111,5.53196021900015,-1.26045206348152,-1.0044065714166,-0.405773270622469,-0.874981394440374,-1.66526216335258,-0.560080470017276
440.19566527778,111,5.61298229222514,-1.23649068122823,-0.723269494368716,-0.427133599683275,-0.849880366252904,-1.16970552590804,-1.68598961495713
441.198388888891,111,5.69400436545012,-0.83931784342511,-0.60891387101857,-0.905544096547409,-0.919440245702521,-0.766251576189232,-0.709679136838481
442.201112500003,111,5.77502643867518,-0.938271452778677,-0.644051183051549,-0.770982230912652,-0.948246989470149,-0.972400375906602,-1.24217493509625
443.203836111114,111,5.85604851190017,-1.25098509997902,-0.692853986673906,-0.362701107430703,-0.928013296946064,-0.615416675289543,-0.79338657132557
444.206559722224,111,5.94032393769115,-1.09042897053426,-0.737536836772289,-0.434159951272875,-0.898881548604027,-0.936815486134603,-1.41941758857281
445.209283333335,110.746269444446,6.03673330609044,-1.05443926533486,-0.750831735450457,-1.25317101902352,-0.883620960903627,-0.849800181391696,-0.647397910751782
446.212006944446,110,6.13314267448973,-1.0496444978288,-0.674063995323583,-1.50779009879357,-0.925852433677177,-1.03916303662599,-1.44461591416506
447.214730555558,110,6.2295520428891,-0.946875366552272,-0.914703041148668,-0.905855540165285,-0.829435975948046,-1.73992943213527,-0.402755838752173
448.217454166669,109.738098611112,6.30345895882638,-0.95258425845948,-0.927198354992795,-0.396665257359105,-0.894601441994184,-1.39685499008187,-0.599018761885442
449.22017777778,109,6.29864087187499,-1.25877601785133,-0.971015691070304,-0.26770995178225,-0.970560056242465,-0.81070113119701,-1.72060865014804
450.222901388891,109,6.2938227849236,-0.992962921389768,-0.52374786529315,-1.35978767408053,-0.756918503007,-0.962952861855745,-0.717725241903728
451.225625000002,109,6.28900469797221,-1.12281652220877,-0.77973624705911,-0.865291321642493,-0.943069118341954,-0.379165075283628,-0.694977608055379
452.228348611114,109.272795833333,6.29890230526054,-1.1453503677496,-0.604778962290323,-0.459323538285911,-1.09861115723118,-0.86267509413111,-0.885570298080906
453.231072222225,110,6.35719814920151,-0.754514481762408,-0.775377457492841,-0.2678410516606,-0.897179728509437,-0.735310403827469,-1.10853874045177
454.233795833336,110,6.41549399314247,-1.07259338541733,-0.249627610764552,-0.323341955205409,-1.00094555648131,-0.432449093750747,-0.692342561342549
455.236519444446,110,6.47378983708343,-0.955550318928375,-0.463975387755585,-0.348834405600808,-1.09949321667649,-0.478046033400444,-0.664919861619163
456.239243055557,110.283690277776,6.48841091334358,-0.96005074916756,-0.207522921546644,-0.396164095832115,-1.00355118523366,-0.466371744718404,-1.20916741686692
457.241966666669,111,6.36773061993724,-1.05509080127166,-0.200885035533399,-0.387931356427172,-0.883744156208343,-0.946262268088302,-0.858533799635701
458.24469027778,111,6.24705032653101,-1.0965612874251,-0.526827151111511,-0.743256949698834,-0.968090963952693,-0.371946711152312,-1.31568319878564
459.247413888891,111,6.12637003312478,-1.06474119444294,-0.1349285915019,-0.314058161136419,-1.06385879165934,-0.401757966669909,-0.431382481913663
460.250137500002,111,6.03844036602432,-1.10247036736281,0.0824270194769877,-0.324396795302559,-1.02016630336277,-0.447931074980875,-0.891565789473109
461.252861111114,111,6.04624907614585,-0.910678680026592,-0.20644486439804,-0.544717438351664,-1.06416461666155,-0.492998316242747,-0.473575506605413
462.255584722225,111,6.05405778626738,-1.04814128783935,-0.0135737539337921,-0.283869207875781,-1.00410943277151,-0.305269846397782,-0.675147821993803
463.258308333336,111,6.0618664963889,-1.05998064445688,-0.181357607301753,-0.297427535525997,-1.02438004443907,-0.255746291105088,-0.285800064393915
464.261031944447,111,6.01860140970801,-1.02906396041815,0.0325986572625323,-0.50382582864412,-1.04435387013092,-0.319577582580913,-0.302396204884718
465.263755555558,111.308202777776,5.8342266084386,-1.05349988931139,0.120786258512993,-0.349656872929301,-1.14326041667155,0.848962136761304,-0.305815246723344
466.266479166669,112,5.64985180716902,-0.992755370974472,-0.101645738640032,-0.401925434399585,-0.996371172914216,-0.237777634229156,-0.122814989374172
467.26920277778,112,5.46547700589961,-1.04668973750469,-0.0438843945136995,-0.441269132479781,-0.960994580000531,-0.172570609992892,-0.206770535000819
468.271926388891,112.31637361111,5.2811022046302,-1.08508823735514,-0.188713545950832,-0.344786526643569,-0.951987852708059,-0.286993235448454,-0.365790587449788
469.274650000002,113,5.21523555774347,-0.962570999990739,-0.0364912266303597,-0.677888666641686,-0.922666767353242,-0.137163197905381,-0.372275402825886
470.277373611113,112.678179166668,5.45510960680245,-0.880626760416254,-0.0978712337113749,-0.499057749777088,-0.959739361250971,-0.089207678084599,-0.22423271625108
471.280097222225,112,5.69498365586165,-1.11958622226333,-0.183648783322572,-0.235184553319825,-0.96751964555267,-0.128912128875562,-0.269856775500874
472.282820833336,112,5.93485770492064,-1.09714754793898,-0.151797997693611,-0.399008648401775,-0.943680968683158,-0.233715766309974,-0.282090663353048
473.285544444447,112,6.053471889083,-0.951059166084857,-0.161322914516449,-0.531971311661516,-0.970836972081477,-0.18663621319246,-0.346968058895272
474.288268055558,112,5.87549847534692,-0.983183574306539,-0.123612580575544,-0.245933026849919,-0.913471267013792,-0.157791400369658,-0.235675816686623
475.290991666669,112,5.69752506161084,-0.867717449619705,-0.00407625317341693,-0.477473691674099,-0.898464309023576,-0.0425832767080636,-0.496512265301004
476.29371527778,112,5.5195516478746,-1.16023696251496,-0.299593810608205,-0.0470964756338592,-0.993160570838841,-0.226550006899381,-0.197449628267223
477.296438888891,112,5.34157823413852,-0.979815457025187,-0.0258834271643228,-0.539803704096509,-0.936953004721609,-0.139965799463556,-0.49681938468226
478.299162500002,112,5.19502074410403,-1.17562254488373,0.0946442892023905,-0.142261854909161,-1.01968044027296,-0.196584343805173,-0.148753141321474
479.301886111113,112,5.12046322999988,-1.00621048887968,0.0692342981032656,-0.439359695531721,-1.05609549999146,-0.392956499953903,-0.179750583350273
480.304609722225,112,5.04590571589566,-1.02093631959605,0.0879260656730406,-0.314349192681675,-1.04699319743577,-0.430996675772521,-0.323317098035837
481.307333333336,111.648219444445,4.9713482017915,-1.07393615277702,-0.0190889190577876,-0.219111708376249,-1.03013084397356,-0.293922506273276,-0.218544232691371
482.310056944447,110.645495833334,4.89679068768735,-1.16588595409471,0.116012912088057,-0.159934095710571,-1.11362969062318,-0.379816430538609,-0.477318487266061
483.312780555558,110,4.8222331735832,-1.05356052182955,0.120455728557025,-0.373020125558648,-1.02595126203694,-0.32401784259008,-0.301870701481645
484.315504166669,110,4.80516671891684,-1.07896632289832,-0.00780758508061631,-0.30627101843047,-1.02683144305647,-0.412544229585475,-0.368440163190939
485.318227777781,110,4.91022407710025,-1.04715167500181,-0.128548941243811,-0.237771939995123,-1.043883489835,-0.541894551511748,-1.01215534147864
486.320951388891,110,5.01528143528356,-1.1475188828427,0.00930410736823457,-0.218658061947786,-1.13956871873886,-0.561211413858884,-0.798555717331013
487.323675000002,110,5.12033879346687,-1.03335798459737,-0.342963834569689,-0.20158956382974,-1.08284583888891,-0.40867137513879,-1.09869125499811
488.326398611113,110,5.22539615165019,-0.890088216270307,-0.422754071434927,-0.513986452682173,-1.00313729167107,-0.485961289996134,-0.710432735526092
489.329122222224,110.373569444443,5.26725099979153,-1.11191175693242,-0.460028151356131,-0.464740213903454,-0.986103212510021,-0.474519617105605,-0.800562763416431
490.331845833336,111,5.18288684877064,-0.996083398907522,-0.395946587567665,-0.653815266120613,-0.990213158806589,-0.487440750753775,-0.779894105144224
491.334569444447,110.620983333334,5.09852269774982,-1.06182256759678,-0.518357334954792,-0.951468589928447,-0.857870562910553,-0.988448181379732,-0.903967744083258
492.337293055558,110,5.014158546729,-1.22961885275689,-0.801181154060137,-1.08695923650434,-0.928746043613722,-0.800073081596457,-0.842486278899867
493.340016666669,110.384463888888,4.92979439570818,-1.08012556350786,-0.780850220180799,-0.398816515585669,-1.01408630578891,-0.673904354785546,-1.50445397460466
494.34274027778,111,4.84543024468737,-1.46069682812318,-0.928235562499025,-0.263994187508073,-0.91248381771536,-0.639111729162121,-0.569825098963453
495.345463888892,111,4.82742163022246,-1.19253944451663,-0.626851291861832,-0.629584671040103,-0.908113759251327,-0.582950355553226,-0.697798915553317
496.348187500002,111,4.93266750044467,-1.02751780530855,-0.588025170249276,-0.265028628111921,-1.40129952845939,-0.990096161344875,-0.633056777301875
497.350911111113,110.604641666668,5.03791337066687,-0.997305069499639,-0.708627900702765,-1.24376593240922,-0.849768720970187,-0.881744633583799,-0.590165126142999
498.353634722224,110,5.14315924088907,-0.967940579073779,-0.736797869739569,-1.25138376660522,-1.07628526549247,-0.719991774622173,-1.43061571785956
499.356358333336,110,5.24840511111137,-1.04136453839167,-0.693031260861371,-1.03694620875154,-1.05941767854821,-1.03767850971597,-1.06256937592678
500.359081944447,110,5.35365098133357,-0.896792999712697,-0.683008132702712,-0.972344694290154,-0.998117365746134,-1.28584085448524,-0.714383016085683
501.361805555558,110.406252777777,5.39914421252303,-1.39744895833937,-0.90678664277584,-0.581283337503995,-1.07889571056483,-1.22625239122548,-0.700620286320483
502.364529166669,111,5.34124528001146,-1.14753804057985,-0.736064305734213,-0.982757532343972,-1.0491770273531,-1.31389562878617,-0.736252888557843
503.36725277778,111,5.2833463474999,-1.33376706119687,-0.633999997504715,-0.219317917864452,-1.23880885999315,-1.07943538401571,-0.097279054015339
504.369976388892,111,5.22544741498828,-1.15071646645834,-0.835970038892588,-1.10432142299707,-1.04255039942412,-0.865206800816269,-0.528751022734308
505.372700000003,111,5.16754848247672,-1.09936610643325,-0.687061556182048,-0.716091543742678,-0.902240668412008,-0.968892506543175,-0.8530145715103
506.375423611114,111.419870833332,5.10964954996516,-1.06710646424483,-0.793084464339965,-0.442842802231886,-0.881895458537351,-1.1965985687074,-0.553714453509239
507.378147222224,112.422594444443,5.13895148026698,-1.12863579721714,-0.771711676418984,-0.100055849048328,-0.930288998679563,-0.808181533549065,-1.00389679049136
508.380870833335,112.574681944446,5.30899736113362,-0.980124051732846,-0.918563751731847,-0.52066748473822,-0.972010181580132,-1.11723472961525,-0.660346793584944
509.383594444447,111.571958333334,5.47904324200041,-1.26587758332336,-0.992001891642732,-0.295392025833406,-0.872306334703979,-1.12113341240364,-0.835404793112543
510.386318055558,111,5.64908912286704,-1.30377505189712,-0.670319011723079,-0.883946003271426,-0.962241054148231,-0.997945333158279,-1.2607908113389
511.389041666669,111,5.81913500373368,-1.51095318888835,-0.949219881047014,-0.171456101074561,-0.971166630504204,-1.51386765679206,-0.375768947303061
512.39176527778,111,5.90494177885409,-1.14132145788602,-0.674192755410281,-0.335144048747013,-0.87938272595084,-1.53373048143665,-0.140804101793803
513.394488888891,111,5.86233438141197,-1.15210365275682,-0.771312629233747,-0.363851667973558,-0.971791365032298,-1.11546825037831,-0.71379839501193
514.397212500003,111,5.81972698396981,-1.63138769430888,-0.943296651738385,-0.34238568314657,-1.19680542283055,-0.787979317701135,0.119015356508772
515.399936111114,110.555616666667,5.77711958652768,-1.67446386111587,-1.31161200581599,0.199356213945828,-1.42598082821891,0.209263167604063,0.0647681280682488
516.402659722225,110,5.73451218908556,-1.35724614025731,-1.12154584650535,-0.353476997494965,-1.40339051806307,0.738229711107169,0.403979577306311
517.405383333336,110.449830555554,5.69190479164344,-1.42315414723168,-0.857092960978918,-0.109651651032176,-1.53948795368856,0.363476805063853,0.686190466138478
518.408106944447,111,5.72895357860871,-1.45642791874369,-0.801608900453467,0.151208169494199,-1.24208247515763,0.236577691953225,0.43851643499138
519.410830555558,111,5.87948445255591,-1.39790173608747,-0.846180437558137,-0.34791534733413,-1.28991493823355,-0.348556527897478,0.435601888797805
520.413554166669,111,6.0300153265031,-1.48490589583194,-1.6237035750091,-0.292078499120296,-1.00516901401432,-1.53742978484373,-0.378392565794767
521.41627777778,111,6.1805462004503,-1.53656168126176,0.132141243114338,0.0368888370429171,-1.16851226055615,-0.0356050372185357,0.936702374588927
522.419001388891,111,6.33107707439749,-1.58261818682646,-1.19122217413636,-0.113207244330595,-1.29692790856813,0.139103098091897,0.442453569035518
523.421725000003,111.466172222222,6.34440730942021,-1.43932701648541,-0.853300330857714,-0.277186524289115,-1.26258891110675,0.00415006172147281,0.657712005894284
524.424448611114,112,6.17287997604127,-1.39503490266836,0.06293585744124,0.734139146685564,-1.43740646090544,-0.257638104583861,0.144662335998513
525.427172222225,111.528380555556,6.00135264266233,-1.43249654165897,-1.09452212120027,-0.0622175384374755,-1.22810525181751,-0.504206538240356,0.181233113562747
526.429895833336,111,5.8298253092834,-1.84815427071209,1.41906376478309,0.468367233000716,-1.24026049722791,0.751868224886501,0.38483895060297
527.432619444447,111,5.65829797590431,-1.61986679988526,-0.00880533400423478,0.439441806341859,-1.32274999986549,0.240157712226566,0.559972817449471
528.435343055558,111,5.48677064252537,-1.27305342289276,-2.15595080069426,-0.309783,-1.10733476663495,0.546689506501578,0.566885558658019
529.438066666669,111.482513888888,5.31524330914643,-1.83293809150318,-0.189961945470174,-0.681464029736517,-0.69652405337482,0.0225558471400269,0.350511844016781
530.44079027778,112,5.33706864457555,-1.68286759997784,-0.0301880909105615,0.378964941322367,-1.04948193461824,0.0716769985548083,0.159689979502583
531.443513888891,112,5.60001686801161,-1.82853145416233,0.568598864772284,1.01311782701205,-1.53033414721038,0.703722824068294,0.28465346944787
532.446237500002,111.509315277779,5.86296509144767,-1.42001232999542,-1.24963082266605,0.328880434932705,-1.22432772389717,0.895014238457807,0.462863997905837
533.448961111114,110.506591666667,6.12591331488397,-1.58314341256013,-0.00167111619925353,0.0836390602535802,-1.15605450551344,-0.389427763343595,0.698520455278347
534.451684722225,110,6.38886153832004,-1.60699248371208,1.16803664167726,-0.282367683179292,-1.14584231041823,-0.268792589933922,0.518519768194794
535.454408333336,110,6.53337396342223,-1.78109310551768,-1.32091065984314,0.0598042521372516,-1.50450224220967,0.857313445184728,0.492401127407453
536.457131944447,109.498420833334,6.53807072081668,-1.63179826926263,0.0968014664043773,0.721911358666446,-1.51315611102189,0.522729525494041,0.209417663978779
537.459855555559,108.495697222223,6.54276747821112,-1.7507010888885,1.51993176982441,0.240775419639944,-1.49205191672215,0.770654990885595,0.390295319625085
538.462579166669,107.492973611112,6.54746423560557,-1.95271140694536,-0.686545935992734,-0.253368652621248,-1.29106092184974,-0.485843587146802,0.0990845540164503
539.46530277778,107.509749999999,6.55216099300001,-1.96866737512429,1.56816350080782,-0.229007916294807,-1.21979346260914,-0.395615950669086,-0.450537825336467
540.468026388891,108,6.53980133702771,-1.78665878613804,-2.0749329138817,-0.250625316610381,-1.05025702861989,0.710083774641484,-0.0677737393946636
541.470750000002,108,6.5083759790555,-1.35643292553175,-1.59689819259061,-0.282851962057634,-1.0720374663806,0.402493016782803,0.181541552751659
542.473473611114,108.517920833333,6.47695062108325,-1.66442178756628,-2.15840896250016,-0.498177866621266,-0.996153566363819,0.790467046271353,0.350955569610753
543.476197222225,109,6.44552526311104,-1.55100459991245,-2.15720625185143,-1.09166147120893,-0.708397880882315,0.659195839555105,0.126483707099065
544.478920833336,109.523368055555,6.41409990513882,-1.22511426217117,-2.15679738715263,-0.339218685786959,-0.91982184568169,0.262722254959102,0.152783105765899
545.481644444447,110,6.44859996879188,-1.71900216673316,-1.78388587493873,-0.381261222514952,-0.982201082272492,0.350212422868213,-0.318359471698359
546.484368055559,110.528815277778,6.55288823796556,-1.27116700555437,-2.15598067546293,-0.341422442401669,-0.605448493062577,0.434835741273874,0.0664352857935354
547.48709166667,111,6.65717650713915,-1.30426801114252,-2.15657383148137,-0.209449316121037,-1.23796749708283,0.965318828709821,0.41484549162456
548.489815277781,111,6.76146477631275,-1.86485242810473,-1.58441454228318,-0.910056093563855,-0.967599054871767,0.703812396131333,0.183454287902683
549.492538888891,111.53698611111,6.86866501927107,-1.98292918055549,-1.58251384534397,-0.770238826906572,-1.1983572048197,1.00730984927747,0.0959556039966706
550.495262500002,111.460290277779,6.97881671476063,-1.36289735999614,-2.15678588111105,-0.208497531916597,-0.796955150403319,0.560241370009646,0.279806260660127
551.497986111113,111,7.0889684102502,-1.85542376666202,-0.943213498287481,-0.242376544421611,-0.995980562810456,-0.209094758778658,-0.6569577930963
552.500709722225,111,7.19912010573986,-1.38825698446307,-1.29411830584746,-0.191728211510786,-1.21589575307983,-0.202167806009068,-0.306461742460484
553.503433333336,111,7.12191902817162,-1.82480330549355,-1.24526115825916,0.335460052512324,-0.841249568995175,-0.0456919842234559,0.50704064209712
554.506156944447,111,6.86290148129111,-1.67821519160602,-1.35164136411283,-0.0361098980775582,-1.60165146549319,1.1760374474476,0.665427974364316
555.508880555558,111,6.60388393441061,-1.41840485433519,-0.861696200487589,-0.292894111217825,-1.16258740311647,-0.603460850562363,0.11782044239602
556.51160416667,111,6.34486638752987,-1.10051317220276,-0.74710358974119,-0.689467714041657,-1.04929036041194,-1.21743634300207,-0.457510598318818
557.514327777781,111,6.08584884064936,-1.26328386665026,-1.03824860000323,-0.859440655906927,-0.985294122478899,-1.27827228989745,-0.478359567583365
558.517051388892,111.56149861111,5.90551644961086,-0.994472366882901,-0.456045344655774,-0.298228847770448,-0.951173695935034,-1.52014337216705,-0.181908159126776
559.519775000002,112,5.797503062222,-0.939489525935589,-0.536211377755094,-0.534339837020497,-0.886805888888415,-0.932226133291779,-1.00050042217835
560.522498611113,112,5.68948967483313,-0.777080074172919,-0.473435445836296,-0.43517266541984,-0.775832924307128,-0.687427575558726,-0.90121212527748
561.525222222225,112,5.58147628744416,-0.985354791679174,-0.39821239379649,-0.344452893768704,-0.910640013333122,-0.484722916111404,-0.719947025277647
562.527945833336,112,5.47346290005529,-0.882126001433152,-0.45628608607119,-0.178037421604602,-0.92651960883714,-0.48303321285864,-1.07936659902497
563.530669444447,112,5.4796745296669,-1.04841055682034,-0.327474182029642,-0.685879098373946,-0.961532304167376,-0.398981213330681,-1.03649760581608
564.533393055558,111.422159722223,5.58530143486133,-0.915434855437112,-0.406288703347164,-1.21693229301914,-0.976451822944835,-0.465155401734345,-0.666681399298746
565.53611666667,111,5.69092834005585,-1.13587864444463,0.0871766956613453,-0.1090408868223,-1.04172404654772,-0.425783498856126,-0.569602642586549
566.538840277781,111,5.79655524525027,-1.07068853749883,-0.0697896922076583,-0.0840769768968574,-1.11010730946845,-0.397556420069597,-0.644718890305975
567.541563888892,111,5.9021821504447,-0.982222853663917,0.0354371404732073,-0.468893756442456,-1.04380333888521,-0.248901574618434,-0.251700351828992
568.544287500003,111.588734722221,5.90791236138594,-1.06542872933495,-0.0217991976372765,-0.323025797402096,-1.02970958935142,-0.285661852313743,-0.252342489767781
569.547011111114,112,5.83132633741651,-1.06802250000259,-0.218627062491808,-0.433038874937967,-0.941315621527333,-0.117091784721029,-0.257922052082021
570.549734722225,111.405818055556,5.75474031344701,-1.00950061744889,-0.143348779652706,-0.407984493078176,-0.940207782981917,-0.0907969986819358,-0.230296371868131
571.552458333336,111,5.67815428947758,-1.02208687656909,-0.0477216563078059,-0.294228633889296,-0.982543506776229,-0.125168226639468,-0.279846067431027
572.555181944447,111.599629166666,5.60156826550815,-0.932252094423066,0.023299619918473,-0.349071595017882,-0.921976223996711,-0.128774358750436,-0.201281140416329
573.557905555558,112,5.68363252411156,-1.14143074998424,-0.151710487281047,-0.134396093616796,-0.957659659686183,-0.120581411594918,-0.154132259655448
574.560629166669,112,5.88943151805597,-0.964925963266263,-0.1716591555243,-0.251943635641838,-0.941962557293556,-0.167742408513991,-0.132368669851622
575.563352777781,111.3922,6.09523051200056,-0.973118506652868,0.0774676325763985,-0.385877060008451,-0.965213875001071,0.136164685001519,-0.192758649998245
576.566076388892,111,6.30102950594497,-1.1578639487282,-0.196576051481348,-0.0178170648204187,-0.984111435587067,0.0778918269964892,-0.223730405408478
577.568800000003,111.613247222222,6.38390083264581,-1.27959338578843,0.000925028036971219,-0.0771015667372783,-1.15028053680596,0.4203120954172,-0.0277365768092018
578.571523611114,112,6.37504928996873,-1.3331347465288,0.0177446832923406,-0.284464441522955,-1.2296714291825,0.363103539893636,-0.197086568061626
579.574247222225,112,6.36619774729165,-1.41784528821206,0.0657555148398749,-0.190937141393015,-1.12538019791536,0.362481750598839,-0.279123114368354
580.576970833336,112,6.35734620461456,-1.29563344110062,-0.0509657966702278,-0.294149373015637,-1.14992947627304,0.368048993936797,-0.196832722028466
581.579694444447,112.624141666666,6.36351378566671,-1.42316005003297,0.184064307091127,-0.332048987918861,-1.11108407738096,0.484403902381256,-0.160281059166735
582.582418055558,113,6.38039965127782,-1.43893245302697,0.0737089720979315,-0.122159501444161,-1.15562687129698,0.54643793300626,0.00566704827153626
583.585141666669,113,6.39728551688892,-1.54287083333996,0.166420992596462,-0.140346523706428,-1.14170971111106,0.78786466944439,-0.0779861799445129
584.587865277781,113,6.42609696375011,-1.39758930000194,0.26587066925487,-0.520325002501351,-1.17958371876678,0.721750122963068,-0.179674056434295
585.590588888892,113,6.46313757394454,-1.4919137038603,0.15929050764156,-0.361499421111022,-1.31053788612796,0.813197591991615,-0.169893216109084
586.593312500003,113,6.50017818413898,-1.8291366748273,0.506829945140377,-0.382606728924653,-1.33122960937522,0.718317355069862,-0.124004236635546
587.596036111114,113.640483333333,6.47062105595816,-1.88339747083312,0.503774398748816,-0.850001877914764,-1.35860231666758,0.803275903635061,-0.165065707777125
588.598759722225,114,6.39663760112137,-1.82092222153003,0.327013681259803,-0.367056682265738,-1.35224649965413,0.756138995105784,-0.48925993555293
589.601483333336,114,6.32265414628458,-1.94065092596801,0.411553943791704,-0.424897524977897,-1.48911741666663,0.987094817373811,-0.190524986792964
590.604206944447,114,6.24867069144772,-1.96961289166769,0.98776070049214,-0.448844623356706,-1.40758680500478,0.856262582335749,-0.183052756332842
591.606930555558,114,6.24105980205564,-1.95396786667084,1.29699114007269,-1.1933173406131,-1.30456601480917,0.986253520005041,0.185411344609302
592.609654166669,113.345898611112,6.27575654580911,-1.97252,1.54033710532671,-0.628564759907094,-1.44517298678724,1.30439015767626,0.302440273133126
593.61237777778,113,6.31045328956257,-1.87479147498537,1.4403008125506,-0.61186643377054,-1.35532177497136,1.09117244501532,0.0181743497291244
594.615101388892,113,6.34515003331607,-1.76584565972506,0.191506372523567,-0.339649844160091,-1.49304447917247,1.23689287524211,-0.087391944357017
595.617825000003,113.662272222222,6.42636314119473,-1.97079406944591,0.802370012625022,-0.943405304844991,-1.39974948794804,1.11745357251485,0.57139273920254
596.620548611114,114,6.53589565485443,-1.93650894791054,0.57260063102435,-1.08527023148909,-1.44366145838068,0.357755806020414,-0.27557544393558
597.623272222225,114,6.64542816851413,-1.97282686805671,0.69838187731218,-0.253152197390269,-1.35947079110711,0.91001708351894,0.418596597493565
598.625995833336,114,6.75496068217384,-1.75193827568298,0.953640434898321,-0.84277856318893,-1.59032855903776,0.00707656242025434,-0.501983611456883
599.628719444448,113.326833333334,6.71545039458298,-1.46127504165026,-0.558892327155606,-0.680688141645511,-1.7366481666751,-0.509049066680414,-0.536165083354744
600.631443055559,112.324109722223,6.58932130107398,-1.39944712098394,0.580379972174074,-0.152138151284788,-1.54477322500351,-0.227512291126182,-0.451015064307979
601.634166666669,112,6.46319220756498,-1.53218175582399,-0.882989630336997,-1.47100831535073,-1.86959655694191,-0.440316498696479,-0.519477291212171
602.63689027778,112,6.33706311405597,-1.60863813759033,-0.567143724511535,-0.910416391912817,-1.82091930416195,-0.606415647715031,-0.672727177497523
603.639613888892,112,6.21093402054685,-1.35560862772219,-0.683052564832513,-0.809835409456887,-1.7357530382437,-0.349948613532175,-0.96761720110838
604.642337500003,112,6.08480492703785,-1.29996684202557,-0.907492080211477,-0.397215128645506,-1.64154642713718,-0.366359434669117,-0.389404719519957
605.645061111114,112.689508333333,5.95867583352885,-1.10258680120592,-1.03253318279373,-0.740873331645591,-1.76916550835795,-0.778140465118998,-0.617179950879892
606.647784722225,112.307768055556,5.83254674001984,-1.30055676735039,-0.726967459387675,-0.397017483770961,-1.74201964123236,-0.208192909370032,-0.940368133159061
607.650508333336,112.694955555555,5.70641764651084,-1.65886299978267,0.139426961738331,-0.859354897659915,-1.99598989998883,-0.312997432284956,-0.324933057780682
608.653231944448,113,5.58028855300172,-1.46600403070783,0.0895077741349517,-1.18972996243307,-1.4095070403116,0.374551643323553,-0.116508950096731
609.655955555559,113,5.45415945949271,-0.974344275668184,-0.764457392733103,-0.295982102476884,-1.95939126851982,-0.434958509260848,-0.35372099027646
610.65867916667,113,5.32803036598371,-0.96716780459209,1.2089872023302,-0.929520345443604,-1.85766518425863,-0.38998041932946,-0.455767098378752
611.66140277778,113,5.20190127247471,-1.35708758728169,0.0300780453420118,-0.786850499883289,-1.80809113330471,-0.358788116702023,-0.360093505001852
612.664126388891,113,5.0757721789657,-0.460369051346684,1.27806117675872,-0.134364331667562,-1.93451021111502,-0.489535555827786,-0.740781443615928
613.666850000003,113.711297222222,4.94964308545658,-0.788786000387481,1.09679266529648,-0.56258716766512,-1.77311350859983,-0.525885120805425,-0.542573683093241
614.669573611114,113.285979166667,4.82351399194758,-0.375882964039602,1.4087353982876,-0.46959477573005,-1.82105419443751,-0.508145702088434,-0.395277072916131
615.672297222225,112.283255555556,4.69738489843857,-0.400701081841704,1.06395727178917,-0.0490112021829136,-1.72756949431095,-0.586524948518751,-0.543248153475988
616.675020833336,112,4.57125580492957,-0.458823644394317,0.561489140175417,0.0559558060119867,-1.43076917914619,-0.638833638340812,-0.299440443047048
617.677744444447,111.277808333334,4.44512671142057,-0.354142662082441,0.545993971380634,-0.0395953703124566,-1.5400699471454,-0.82926457203575,-0.555578699658741
618.680468055559,111,4.31899761791145,-0.4098195091513,0.857555046929682,0.0321516557558462,-1.60920019579167,-0.636181418850414,-0.314834824242052
619.68319166667,111.727638888889,4.26291360114577,-0.346725576374147,0.720895794964221,0.0332273771712786,-1.62729791660513,-0.617416673637741,-0.375980930563872
620.685915277781,112,4.23877679042182,-0.27331174958445,1.38196618030533,0.0391960705006503,-1.57130604998145,-0.712255795638766,-0.375599272491103
621.688638888892,111.26691388889,4.21463997969786,-0.371483149730374,0.487065106582669,-0.0470331747351166,-1.22910815065249,-0.663121585456821,-0.265949687726386
622.691362500003,111,4.19050316897389,-1.06543404234084,0.256820379771586,-0.346359312039217,-1.37970951500879,-0.748465947241749,-0.444124123107743
623.694086111114,111,4.16636635824993,-0.365321980000226,0.267716306632066,-0.113311552015778,-1.48062475553168,-0.86325270221302,-0.294620626661826
624.696809722225,111.741256944444,4.14222954752598,-0.330521503239716,0.354232709483078,0.0637572659581241,-1.64644566891958,-0.634090714948137,-0.352783253730879
625.699533333336,112,4.11809273680202,-0.325010439352876,0.605776132847774,-0.0963870923210929,-1.66442807153155,-0.671133218503832,-0.363486510907519
626.702256944447,112.746704166666,4.09395592607807,-0.331248004166681,0.990847277086942,0.00114184749773616,-1.64510677083421,-0.829367456041384,-0.288539174791581
627.704980555559,113,4.6658262832802,-0.943586457262806,0.663177134613272,-0.944038655262805,-1.61467530494434,-0.442776754975983,-1.15760429970307
628.70770416667,113,5.48291567226616,-1.21283683534157,0.845369305002605,-1.15184234582419,-1.97112241041664,-0.448268728816177,-0.535446479613056
629.710427777781,113,6.30000506125212,-1.00307725935452,0.0915453250780184,-0.425951318438958,-1.87439505002111,-0.47305661372413,-0.626026070020434
630.713151388892,113,7.11709445023808,-1.49737745989801,0.0590776274714599,-0.908309555037134,-1.69248183369466,-0.0836110570195207,-0.838549270398685
631.715875000003,113,7.15610317574015,-1.40530074068218,0.137161802526751,-0.331073446994402,-1.74989560556258,-0.38681832165852,-0.462675068330553
632.718598611114,113,6.89156797506867,-1.59610014572342,-0.235026159304123,-0.863625735433718,-1.71509100522464,-0.252785854300196,-0.760949627784733
633.721322222225,113,6.62703277439742,-1.57558178503061,-0.0176425698247581,-0.916140953517377,-1.6895093402899,-0.229478340547557,-0.884973110469578
634.724045833336,113,6.36249757372617,-1.59785773250712,-0.278813951344414,-0.909696836003702,-1.51780207872721,-0.29707832487638,-0.394783237741883
635.726769444447,113,6.09796237305493,-1.93468371389547,0.75163752492254,-1.30429189613174,-1.16619392500972,0.77084841870172,0.252922826940448
636.729493055558,113,5.83342717238368,-1.89388013957358,1.26762815347773,-0.671382162648585,-1.25884251459988,1.25264168660901,0.333417980249006
637.73221666667,113,5.76588560501668,-1.97551936851793,1.26245416948019,-0.675948831780848,-1.42867962611191,1.01684927131344,-0.381291846949833
638.734940277781,113,5.76912841317501,-1.9512149250116,0.360770433132052,-0.164819763745111,-1.43030499874307,0.968478703400323,-0.0224587725389561
639.737663888892,113,5.77237122133334,-1.86068577784516,0.348516111158372,-0.294993761110855,-1.37984655556341,0.866895322282741,-0.226407613834673
640.740387500003,113,5.77561402949167,-1.75273680301225,0.436353499983315,-0.517036923218363,-1.342037207786,0.88954923991587,-0.312239129462349
641.743111111115,113,5.77885683765001,-1.54804500418331,0.177342576677524,-0.301617818332004,-1.18883559166332,0.56152397667547,-0.0779324458483544
642.745834722225,113,5.2535247158452,-1.754000193199,0.277411603887258,-0.246600161917226,-1.38923107686622,0.832891950041946,-0.30308183349175
643.748558333336,113,4.55128728927589,-1.76815503335217,0.247192423633797,-0.2138261693273,-1.36739682111049,0.694252916779125,-0.0450920094052239
644.751281944447,113,5.08641934323151,-1.84517506947052,0.444737524396973,-0.266840277833484,-1.43670192709122,1.01673065106912,-0.54252969782654
645.754005555558,113,6.02379044298828,-1.94129457787268,0.630792414623326,-0.374848284198222,-1.32963109861707,0.826059572949308,-0.166526650553958
646.75672916667,113,6.9611615427459,-1.72588580800601,0.234082354455713,-0.490664557154457,-1.30020585724079,0.809260095876925,-0.209657656800666
647.759452777781,113,7.89853264250267,-1.89693536250896,0.446128512587308,-0.772964982489699,-1.492009074977,0.933670270030197,-0.289306614967917
648.762176388892,113.806623611111,7.5882083247551,-1.75567034781047,0.305677724714711,-0.49631962569163,-1.36133384549774,0.916304073127142,-0.294154623050342
649.764900000003,114,6.89575246701218,-1.72195339412301,0.445957526264493,-0.906829800651452,-1.25174501157502,0.694511347687339,-0.345088739971547
650.767623611115,114,6.20329660926862,-1.84914676562909,0.505523017349965,-0.605050758652727,-1.35582548124312,0.882870829507069,-0.128217643556263
651.770347222226,114,5.5108407515257,-1.95813327808653,0.756512152871854,-1.08300549563784,-1.42236482220748,0.916694753193116,-0.112505005371417
652.773070833337,113.182481944445,5.74248193314029,-1.97544015532427,0.894846327957812,-1.45544837315965,-1.4863257890282,0.716297937903008,-0.276307881595667
653.775794444447,112.179758333334,6.24025398816798,-1.91767284269823,0.457117498557542,-0.659710382995809,-1.55705749238079,0.128000850721751,-0.415539913348219
654.778518055558,112,6.73802604319566,-1.87158088986274,0.61563519339443,-0.397027406231399,-1.40335014759025,0.0376107166145778,-0.420762587516256
655.781241666669,112,6.61152585057711,-1.48553683995867,0.156752389297107,-0.694145656656926,-1.3827153777842,0.475176082946693,-0.133731641495244
656.783965277781,112,6.31359260034911,-1.78025626249977,-0.244423763349842,-0.675993564567683,-1.66350947917952,-0.223637554195449,-0.544004034586492
657.786688888892,111.168863888889,6.01565935012139,-1.82549523263013,-0.652839158032294,-1.01706920843552,-1.63079144307183,-0.368768321217123,-0.524774049797057
658.789412500003,111,5.71772609989367,-1.30610380211463,-0.354558880172893,-0.744295952975809,-1.4791019694486,-0.0359869048695578,-0.54521199875049
659.792136111114,111.836583333333,5.41979284966595,-1.52077488331897,-0.343694993387467,-0.43560297664567,-1.58656286668093,-0.0521388377052281,-0.470245786196371
660.794859722226,112,5.50619900643946,-0.868737338959554,-1.04329226632424,-0.570118916014392,-1.69320174769352,-0.499140712867701,-0.56814317553737
661.797583333337,112,5.68981374321165,-0.903475862752361,-0.833200136995135,-0.465449888084474,-1.90234249468408,-0.345946110522962,-0.56311488699285
662.800306944448,112.844754166666,5.87342847998384,-0.709637669197057,1.05122239838893,-0.741220978612482,-1.86682250458429,-0.45902319649859,-0.476437066254877
663.803030555559,113,6.05704321675603,-1.03104073703805,-0.076733417803547,-0.717236566143391,-1.8926371278107,-0.51696495995453,-0.611136864493013
664.805754166669,113,6.24065795352822,-0.92160295490926,-0.211281774647165,-0.651570339394196,-1.76497307379169,-0.672275210724932,-0.587437199318218
665.808477777781,113,6.14646869284951,-0.838798689135466,0.109289462575622,-1.15005934241934,-1.48103205634757,0.300058353467952,-0.0432599172439774
666.811201388892,113,5.98783982301898,-0.7640164346071,-0.650648599616516,-0.464974617588926,-1.98040347966191,-0.480955151012718,-0.606050454217655
667.813925000003,112.141627777778,5.82921095318846,-0.671712926566574,0.709963994670032,-0.106949954543976,-1.99771053056427,-0.421010959181123,-0.30511053943239
668.816648611114,112,5.67058208335793,-1.49714935165011,0.534371817124845,-0.947976385968552,-1.74653113679397,-0.482416648379704,-1.13129725909962
669.819372222225,112,5.5119532135274,-0.883416911707087,0.137947696426592,-0.733670295633628,-1.69553172840659,-0.368323429865087,-0.828575905130289
670.822095833337,112.866543055556,5.74902067605654,-1.26129092338142,-0.407019779709547,-0.30540867778157,-1.66932162028373,-0.576819158003273,-0.691950086121557
671.824819444448,112.130733333333,6.06985212266759,-0.470001376390213,0.97330965051321,-0.216684726386542,-1.78374144987979,-0.544671443448103,-0.635158413293398
672.827543055559,112,6.39068356927864,-0.269253052294147,0.519665218198642,0.195908328432606,-1.52332427040399,-0.715317865855777,-0.261112061969004
673.83026666667,112.874713888888,6.71151501588969,-0.548695625134166,0.421281482289914,-0.363630707271519,-1.61000181312678,-0.809660778383598,-0.199794628453741
674.83299027778,113,6.69736832291648,-0.46230082338246,0.631612071785472,-0.0600612586627329,-1.56750374995343,-0.687824818789735,-0.310743746845432
675.835713888892,113,6.61758494759235,-0.300305222978749,0.242509038870223,-0.0085188087257224,-1.73394263884629,-0.610852689471499,-0.298164917765778
676.838437500003,113,6.53780157226829,-0.509159875903466,0.288086241439987,-0.56800481321461,-1.20290689931946,-0.671944831767087,-0.306028112883937
677.841161111114,113,6.45801819694423,-0.415177220218895,0.453487953328912,-0.0748249646189551,-1.11847243704188,-0.651065828326043,-0.0534566890940536
678.843884722225,113,6.37823482162017,-0.3787336369912,0.249812822771606,-0.283451749758478,-1.06124315068105,-0.563078354163389,-0.107167912210434
679.846608333337,113,6.29845144629604,-0.35719123057379,0.242242794439204,-0.156065775881377,-1.39031042591886,-0.716829455551033,-0.316355877775336
680.849331944448,113.893779166667,6.13255305889946,-0.336408278353383,0.186842043740047,-0.145293906261451,-1.15154235690894,-0.660722205140097,-0.252665314849409
681.852055555559,113.103497222222,5.95174995913282,-0.383737352581633,0.243047736870446,-0.272776471343045,-1.67236494572577,-0.756602204392501,-0.544367752590216
682.85477916667,113,5.77094685936619,-0.422114527832377,0.180426336257617,-0.240709246812167,-1.12158464651558,-0.648028226382646,-0.171567654927981
683.857502777781,113,5.59014375959956,-0.39956594499887,0.264145203750656,-0.295440035000021,-1.03961183487415,-0.621136270024746,-0.229293360018097
684.860226388892,113,5.40934065983276,-0.389187790120356,0.461474006178782,-0.0865281358212925,-1.29722848082672,-0.58117983453182,-0.468701569061062
685.862950000003,113,5.45361396250579,-0.299913663910015,0.313319725941544,-0.18528910054566,-1.12191049924087,-0.6513085665241,-0.121619227582535
686.865673611114,113,5.53270278460855,-0.28992625216718,0.22380515006211,-0.158866243546743,-1.09425666839072,-0.603700038664119,-0.122870816073473
687.868397222225,113,5.61179160671132,-0.456953102234927,0.429171431042471,-0.0559130188032688,-1.30818186664799,-0.651655871105312,-0.162406147547887
688.871120833337,113,5.69088042881415,-0.348702853864231,0.664340427851547,0.0868931672297894,-1.52034462091928,-0.759613823509426,-0.541508486795032
689.873844444448,113.918291666667,5.76996925091692,-0.3824692312467,0.564644529797334,-0.193291379864736,-1.50651897081696,-0.681082534179036,-0.367760967489926
690.876568055559,114,5.87155651872531,-0.386207901622771,0.342409744327807,-0.0994068418514796,-1.28086183013658,-0.668087822874483,-0.375465523665907
691.87929166667,114.923738888889,5.97622281470029,-0.417078025326917,0.387871176882808,-0.0759360856864371,-1.13809215553117,-0.640039979369531,-0.421139838849414
692.882015277781,115,6.08088911067527,-0.491587229396143,0.199437259360798,-0.169282745460204,-0.820883248124718,-0.67206310312521,-0.186005388750214
693.884738888892,115,6.18555540665025,-0.602903878327116,0.0940038528428792,-0.0337766860950431,-1.10749442612071,-0.668431416212499,-0.200474847237897
694.887462500003,115,6.29022170262533,-0.523707730345151,0.169754357048369,-0.234054053187189,-0.844759447917109,-0.642001263888822,-0.103238996527674
695.890186111114,115,6.08203969273262,-0.556215712221152,0.158424121056007,-0.143738953332553,-0.673078458288401,-0.721737651667916,-0.175397566679518
696.892909722225,114.062643055556,5.83645062045211,-0.518728760281809,0.23905839699968,-0.332145029304246,-0.663989916760781,-0.693107087780209,-0.203293193348952
697.895633333336,114,5.5908615481716,-0.531169338166414,0.11819003627113,-0.414747092566128,-0.75623667560461,-0.620890384213033,-0.440208598891213
698.898356944448,114,5.34527247589086,-0.617914723979944,0.156663274683745,-0.0631039045779876,-0.83993978641369,-0.667529359365849,-0.132372403134109
699.901080555559,114,5.09968340361035,-0.505512406967478,0.200580889566361,-0.253530706108721,-0.790618879627923,-0.62905587407471,-0.117527439814668
700.90380416667,114,5.16550202100862,-0.518230850758287,0.205042961480339,-0.204771561801434,-0.708473355194329,-0.730536973461173,-0.184239525433022
701.906527777781,114.950975,5.26333375285027,-0.518110660762143,0.168799105745244,-0.122840436842379,-0.695078246244478,-0.637528149688891,-0.16290863200377
702.909251388892,115,5.36116548469191,-0.575830451280645,0.161913828852505,-0.00214856017215699,-0.738199501882393,-0.678487066328417,-0.144529603554151
703.911975000004,115,5.45899721653365,-0.619759082989707,0.13845087375022,-0.164328690553084,-0.652352361456538,-0.648449592606966,-0.17882252000258
704.914698611115,115,5.5568289483753,-0.575928742997967,0.157257881692386,-0.181717755801066,-0.708697916646771,-0.749980219793917,-0.270578252510414
705.917422222225,115,5.51950398909245,-0.607056307452785,0.267599948454639,-0.0212318843616779,-0.533017723702144,-0.580453672316209,-0.143866573797019
706.920145833336,114.035406944445,5.47048417415728,-0.545114763974651,0.00404561457200224,0.0189775067668596,-0.804698920922335,-0.651444003329332,-0.163618057936581
707.922869444448,114,5.42146435922206,-0.768182127792089,0.144922501390747,0.0242331171258318,-0.717873598234396,-0.746427672108182,-0.25995000806074
708.925593055559,114,5.37244454428688,-0.59411383991183,0.0562273237910999,0.0277224037484192,-0.659157162028856,-0.725856171298678,-0.185682036345582
709.92831666667,113.027236111111,5.3234247293517,-0.601778309980806,0.166697674073281,-0.203807051377021,-0.58122702916259,-0.754934891407592,-0.433837140791458
710.931040277781,113.9754875,5.27440491441653,-0.685234563133327,0.0888109525647169,-0.186113022749171,-0.6247428385014,-0.736850942704391,-0.418417825449349
711.933763888892,114,5.64964475991774,-0.768678245044383,0.12017708572524,-0.463677896678944,-0.513560214979745,-0.781953363904956,-0.258814663327647
712.936487500003,114,6.05357441899058,-0.71739057353005,0.0903663351938065,-0.129876819739859,-0.379448356792762,-0.721280023396777,-0.120337444315078
713.939211111115,114,6.45750407806378,-0.85350514461018,0.106059186506024,-0.192841833342201,-0.346215505401887,-0.715190791268966,-0.0498545454059566
714.941934722226,114,6.86143373713663,-0.806696726770327,0.048115388614718,-0.171322389030092,-0.382390757864215,-0.754701226851059,-0.121477753467489
715.944658333337,113.010894444445,6.71212168173561,-0.815126941409942,0.0751451230071087,-0.137637038053987,-0.564521918880228,-0.66848975278661,-0.124985487965847
716.947381944447,112.008170833334,6.53217039567661,-0.754892488039028,0.0413229671734387,-0.211606861127636,-0.456704834460354,-0.691207150572352,-0.289832260441833
717.950105555559,112,6.35221910961746,-0.739941140481937,0.140259356583085,-0.129318358334553,-0.512559454715104,-0.660773191668881,-0.156223083332041
718.95282916667,111.002723611111,6.17226782355846,-0.530147906159435,-0.099169999746118,-0.0253566208038935,-0.992794194543873,-0.602522500401082,-0.195035931187018
