Time,ZephyrHR,COSMED,ANKLE_AccX,ANKLE_AccY,ANKLE_AccZ,THIGH_AccX,THIGH_AccY,THIGH_AccZ
0,90,1.60222297633347,-1.02385470943496,-0.0229577942358626,-0.266856655987163,-0.999800663725644,-0.0907957838956462,-0.135719282679539
1.0021217510257,90,2.68521595266694,-1.15010977944687,-0.190717022357377,-0.547885342916307,-0.833006963342018,-0.291410654715901,0.0232885857136462
2.00424350205139,90.0833652530746,3.76487347273549,-0.0729147629105195,0.385826130917753,0.0351153610793748,-1.26997344939201,-0.298423059180768,0.0441057227833
3.00636525307891,91.1709740082042,4.322744630315,-0.957328809379996,0.318309997740539,-0.274842045951165,-0.975887959784768,-0.667755742010324,-0.117471086410539
4.00848700410461,93.0876087551278,4.85619782838517,-1.05301560019669,-1.79240389196435,0.140628600537588,-0.767834434697268,0.411087390212737,0.02222774728888
5.01060875513031,94.179461012307,3.10750539406283,-1.362254973201,-0.662606026490374,-0.478553767698099,-1.03425647219565,0.488690632546048,-0.402703647953021
6.012730506156,96.0918522571792,1.3856148232216,-1.88325586559233,-0.531747185947461,-0.633466782043653,-0.772042582819519,0.0445895606657275,-0.212129952369799
7.0148522571817,97,1.44531622653896,-0.473030920383666,0.180783427359469,-0.0738043084645172,-1.0653047065761,-0.343441314075683,-0.375397405059472
8.0169740082074,97.0960957592306,1.53341646107259,-1.60549546096891,0.179665570926698,-1.01696970035225,-1.30619557831932,0.004536537536526,-0.416845915435523
9.01909575923492,98.0982175102581,3.08345329008315,-1.05098596443288,-0.125574416324857,-0.253837522798427,-0.965007741449155,0.129562307732841,-0.460331198367657
10.0212175102606,99,4.60250818330378,-1.01797929942738,-0.0190435834570977,-1.21546411954663,-0.948275125535244,0.0173024662873101,-0.395429650199575
11.0233392612863,99,4.82226847269496,-1.26483161378898,-0.460542913475513,-0.488983708588155,-1.01362995355713,-0.32906997305235,-0.182429905550306
12.025461012312,99.1045827633352,5.00157022690858,-1.20927298015208,-1.77882038393749,-0.954661444649822,-1.08892520116066,1.05005016151181,-0.247785002500626
13.0275827633377,100,3.75141332128651,-1.51511308071647,-0.230067135157296,-0.212251412037636,-0.656732527769794,-0.693724915748787,0.0110217985988224
14.0297045143634,100,2.47258298742985,-0.313117889172798,0.214402008295935,0.0930086279825498,-0.988375821765063,-0.278072237639874,0.0793370407600561
15.0318262653909,100.110948016414,0.414617960865056,-0.366782949119913,-0.0581877625555291,-0.293201664637914,-1.4504853146436,-0.732832010889119,-0.0938059257475726
16.0339480164166,101,1.0671114584189,-1.75939601743332,-0.100182855076444,-0.291449055518147,-1.33093591860825,0.461117649218653,-0.211995889919428
17.0360697674423,101.230383036931,1.71960495597274,-1.26675557099791,-0.0729514554754761,-0.201269963394765,-1.10835481212769,0.1288956953827,-0.0841862137634613
18.038191518468,103.117313269491,2.30078843205898,-1.09078959220063,-0.0744720694956969,-0.445435619063575,-1.04128887243684,0.0127006484367664,-0.198711329678401
19.0403132694937,104.119435020517,1.25590979958932,-1.01381160464606,0.00970735512798364,-0.280038222066769,-0.980120152760372,0.27401265754471,-0.127421337435528
20.0424350205194,105.121556771543,1.91347703956861,-1.1044883970637,-0.0512026977315735,-0.314906585209801,-1.09834491319329,-0.0912953566613562,-0.0726831523915639
21.0445567715469,106.12367852257,2.56379459930957,-1.01808357371519,-0.221609655385712,-0.295302554036651,-0.933844904241886,-0.814579398759934,-0.01340932052123
22.0466785225726,107,3.06572147503559,-1.24168476151366,-1.22908438509008,-0.6243987966947,-0.929638149840448,0.473559806726221,-0.0622452026858072
23.0488002735983,107,3.56764835076162,-1.8445837605755,-0.478193779525282,-0.286603530670899,-0.817704562281592,-0.0302430648942344,-0.274564028944447
24.050922024624,107.130043775647,4.06957522648765,-0.614505855878525,-0.0030811956434818,-0.0986456653404232,-0.810926255303349,-0.602621261540011,-0.183924976156801
25.0530437756497,108.132165526673,4.57150210221367,0.0966054770363987,0.879097392168831,-0.187532698707946,-1.28028287281469,-0.303583549897445,0.0597515424763925
26.0551655266754,109,5.0734289779397,-1.86845812432803,0.425455424912918,-0.643936702095682,-1.38965211327146,0.734402182163045,0.00341240926630927
27.0572872777029,109,5.47322257439021,-1.37565364268291,-0.0697543919790351,-0.883581451770274,-1.05477257182714,0.486433242957237,-0.23926702681385
28.0594090287286,109,4.25234766633311,-1.1161414423185,-0.0186952430992556,-0.922101709511758,-1.00624414103795,0.292189351016203,-0.0915058121291003
29.0615307797543,109,3.11664971060195,-1.0335882900142,0.0926493755133889,-0.294373859096316,-1.01706898221406,0.123249250343441,-0.204591923393273
30.06365253078,109,3.23676903428864,-1.00188178388423,-0.059171996947108,-0.204821401920259,-0.988972899658224,-0.130143211505855,-0.412212887585372
31.0657742818057,108.855103967171,3.31735046117662,-1.16403276060187,-0.173111679341492,-0.108209949658196,-1.2485044328322,-0.120201486144727,0.0205797429031481
32.0678960328314,107.852982216145,2.85390422558852,-0.992285242804712,-0.172046259504644,-0.477158869081622,-0.834475031233913,-0.797660799891157,-0.694789625949781
33.0700177838571,106.701720930239,2.43179718976734,-1.29200902325417,-0.884893958146127,0.0293121632512088,-0.863602786044398,0.419565389145856,0.0654384382953639
34.0721395348846,105,2.54261181299596,-1.72795087546965,-1.84611160912833,-0.510502956582586,-1.01264095880914,0.582051609828186,-0.316382488702328
35.0742612859103,104.846616963066,2.6376457007934,-1.41675740150871,-0.258588193881141,-0.364188419287052,-0.722343486185486,-0.721574225152145,0.0518304211712328
36.076383036936,104,2.59401664547881,-0.582595018456412,0.0648311191093842,-0.101426939010403,-0.905721590075382,-0.265052320568509,-0.21910005955815
37.0785047879617,104,3.16916939265374,-0.0262136842496482,0.110220096943977,-0.121731164225857,-1.39215346923194,-0.281587847044615,0.0819449663414092
38.0806265389874,103.840251709989,3.75136939794764,-0.990585866400515,0.109603886202255,-0.453359037184284,-1.38106069424358,-0.608485502088108,-0.0111962641792754
39.0827482900131,103,4.3433238284543,-1.97823450524396,0.451390754217965,-0.3897822991336,-1.2238688770718,0.659603541421621,-0.541288417548441
40.0848700410406,103,4.19447367416543,-1.25462964673255,0.126139014769915,-0.377005349718972,-1.03969753624714,0.594733011498275,-0.169323396251948
41.0869917920663,103,4.07817090478804,-0.999411070723113,0.00520792924302112,-0.303059257871464,-1.11628599270282,0.0589825885448111,-0.19359318413464
42.089113543092,103.168235294115,4.29533068823531,-0.999075676465314,0.0627653535445485,-0.345671094327843,-0.995867970588455,-0.0189600496466256,-0.16479
43.0912352941177,104,4.47449446549936,-0.969998376477839,0.115950127104922,-0.276715859633905,-0.943604849610671,-0.150819462769707,-0.374025351588433
44.0933570451434,104,4.283794036685,-1.03142337095345,-0.144844673912515,-0.772635138409682,-1.10232546682459,-0.146550705880011,-0.130873570893511
45.0954787961691,103.825399452808,4.09309360787065,-0.975326035437696,-0.117046234294676,-0.463660816377055,-0.9271241992472,-0.335329867494336,-0.701227274687868
46.0976005471966,103,3.98470063993206,-1.48704261152271,0.228674524865807,-0.549104051149623,-1.69715153002249,0.827305595110167,0.0406565432060901
47.0997222982223,103.178844049246,4.62111810035595,-1.14520072229573,-1.46638032145275,-0.228807247312491,-0.997991259626553,0.568138027366079,-0.348105752673501
48.101844049248,104,5.1582399042544,-1.89225294938558,-1.11296661494165,-0.680095816161791,-0.6326135924853,0.0753515875132393,0.0925054246196709
49.1039658002737,104.183087551297,4.83755092270867,-1.05029028499236,-0.0547338499315234,-0.346930288642987,-0.634951440493631,-0.682328758550987,-0.0199149410323914
50.1060875512994,105,4.58091319139522,-0.0133618668470969,0.560650555246631,0.00350001615569132,-1.1275820639596,-0.343638837376633,0.124489534304404
51.1082093023251,105.187331053348,4.85340011671662,-1.59086450945887,0.113638997439631,-0.812457028868887,-1.45887079753622,-0.107950686401182,-0.540512689532131
52.1103310533526,105.810547195624,5.12588704203851,-1.7612764733314,0.140004318509008,-0.483725897145262,-1.06935830278148,0.765446031381138,-0.20824256792343
53.1124528043783,104.808425444598,5.14304495255721,-1.24132276539134,0.122088540219916,-0.281068147608255,-0.985225475237441,0.510868041536324,-0.0984842477117011
54.114574555404,104,3.18230689612367,-1.04914482729062,-0.00884809143352534,-0.303896235469059,-1.02889386069115,0.192129367763574,-0.299280203389015
55.1166963064297,103.804181942547,1.53614598376645,-1.09805369425178,0.0830023828144126,-0.324575931741106,-0.938033528864116,0.211083626950451,-0.218392777565527
56.1188180574554,103,2.22857870966684,-0.987349670978998,-0.137924409579499,-0.629411070580447,-0.995243276087572,-0.041066954322844,-0.136771254555395
57.1209398084811,103,2.79598560846808,-0.967932963405266,-0.303548365050356,-0.266070842137293,-1.11613859188243,-0.424505786231517,-0.119363584406408
58.1230615595086,103.202183310532,2.47030104999289,-1.0296749831242,0.0671846399456773,-0.291692901140463,-0.979808773588209,-0.0301614491542037,-0.117701861915729
59.1251833105343,103.795694938442,2.1446164915183,-0.925414114171093,-0.181641596792008,-0.78231182986585,-0.881175990420096,-0.652591408800656,-0.347960461014979
60.12730506156,103,1.87056158285227,-1.59591881669602,-0.811424407484505,-0.375176326881972,-1.75638265395428,1.43355207917466,0.239125080754923
61.1294268125857,102.791451436391,1.94463341207934,-1.21938501229857,-1.18879867696043,-0.0479390211159261,-0.987361724715721,0.546837597934404,-0.902911225859391
62.1315485636114,102,2.11824050187044,-1.55943658552422,-2.14492500273464,-0.773030789048477,-1.16636395896507,0.986351084053203,-0.136614872769363
63.1336703146371,102,2.93852475586814,-1.78157019334126,-0.496399797536204,-0.368675696670645,-0.625065282068651,-0.601788491160662,-0.00587437981415353
64.1357920656628,101.785086183314,3.68989749815291,-0.887713045983201,0.0313055289226727,-0.117696323870887,-0.775344513907521,-0.853551410621796,-0.151660556316453
65.1379138166903,101.217035567714,4.00945074171473,-0.386362458609198,0.227607197289169,-0.0565132409889045,-0.921142991601362,-0.539761904320634,-0.208117569915459
66.140035567716,102,4.32900398527597,-0.317391196507723,0.205176274579708,-0.12560098806832,-1.41095749486826,-0.176344933721713,-0.0303335893169407
67.1421573187417,102.221279069765,4.53289446976744,-1.38951355815122,0.10019775488302,-0.615988446504466,-1.38615611626457,-0.552639618564688,-0.167270632569111
68.1442790697674,103.223400820791,4.04908679040142,-1.53796058547217,0.00982077175533996,-0.415095207924109,-1.23166391107357,0.738578704664121,-0.393036729543551
69.1464008207931,104,3.5652791110354,-1.33714153213813,-0.126554392595123,-0.0574986110934509,-1.06279544117239,0.331959062948581,-0.106475520624175
70.1485225718188,104,3.25194054740024,-1.13127951391585,0.0189764110348512,-0.28950579525342,-1.0784550768848,0.105692631679582,-0.519388546957243
71.1506443228463,104,3.90213384149608,-1.05536440246174,-0.05538373184445,-0.327921283176343,-0.877460120175088,0.0885514103481183,-0.341186127500441
72.152766073872,104,4.55232713559074,-0.952083189991038,0.116766636278604,-0.321490684396976,-0.959674632216263,-0.0247169554034432,-0.308461169292026
73.1548878248977,104.234009575921,4.87773604710664,-1.07278995622666,-0.0563895088518465,-0.247486445399387,-1.15272097401087,-0.136600889194596,-0.148173659973696
74.1570095759234,105.236131326947,3.45497619639228,-1.37145641844371,-0.782402419393583,-0.498693791260785,-1.42869687073517,0.237743646598115,0.196320081680338
75.1591313269491,106,2.49187308203753,-1.17154594663588,-1.99354976606907,-0.793931628884982,-1.07346883811269,0.72307767235511,-0.499998669706515
76.1612530779748,106.240374828998,3.92569134627445,-1.51679021023962,-0.348558040095258,-0.190282930496985,-0.528885730177221,-0.445034102021897,0.0391648489652557
77.1633748290024,107.242496580026,4.94903382170926,-0.663659302154154,0.0285728307437686,-0.0315348473181422,-0.828091418586845,-0.409443237151765,-0.267594801627264
78.165496580028,108,3.89732207583406,-0.182452040801008,0.612140729221458,0.140577458831505,-1.15685109330614,-0.303026650979694,-0.019023801124755
79.1676183310537,107.753259917923,2.84561032995886,-1.49947877249851,-0.0324629433619936,-0.346888637045855,-1.15347673048836,-0.322954662230089,-0.28268323118879
80.1697400820794,106.751138166897,2.00445999623329,-1.44176748225144,-0.0732727310964183,-0.585613777469074,-1.01778516295701,0.946460548530714,-0.0895275844169707
81.1718618331051,106,2.18052621146452,-1.02159813611612,-0.00882912821589319,-0.375533959983798,-0.998949805799783,-0.00359053596072701,-0.176784575868519
82.1739835841308,106,2.35659242669574,-1.07696933111944,-0.0353580522169175,-0.517629147260768,-0.966406817375674,0.144011324194727,-0.161827550887938
83.1761053351584,106,2.53265864192728,-0.977577908305422,-0.0151150279671263,-0.628326000862305,-0.983984823492605,-0.23686968912298,-0.157783230915355
84.1782270861841,106,2.70872485715851,-1.0290607325579,-0.0281571148252592,-0.536981372091981,-1.08507145930085,0.0642613445923961,0.00648640522469956
85.1803488372097,106,2.88479107238973,-1.31126140589846,-0.617675523571721,-0.260613588247506,-0.927353988241179,-1.12823010817819,-0.0258051870635547
86.1824705882354,106,3.06085728762096,-1.06119188054428,-1.49345166620542,-0.644502632868387,-1.07080892608022,0.785216826838902,-0.348368496377771
87.1845923392611,106.263714090284,3.23692350285218,-1.61041041036283,-0.569510850276219,-0.438136093204733,-0.707291611901505,-0.568957817788018,0.0176928488376871
88.1867140902868,107.26583584131,3.4129897180834,-0.526304625172215,-0.0405802151476259,-0.01275752668442,-0.751306816493748,-0.370574324486714,-0.549237017163734
89.1888358413144,108,3.58905593331495,-0.231518331547747,-0.107298860503873,-0.103050187233724,-1.49592571816992,-0.409330976697713,-0.28066980096258
90.1909575923401,108.270079343363,3.76512214854617,-1.92415671794111,0.167892976717012,-0.408499507036831,-1.27277103283606,0.8941837144856,-0.25690966177272
91.1930793433658,109,3.9411883637774,-1.19944228235656,0.153459641670044,-0.28112107204869,-1.04323276994027,0.543362159848945,-0.275925004300803
92.1952010943915,109.274322845415,4.11725457900862,-0.959335612311953,0.213401052175872,-0.286314580787187,-1.07054865034212,-0.075782261499588,-0.153832480848059
93.1973228454171,109.72355540356,4.29332079423984,-0.949167742722312,-0.181906579374418,-0.291223169078908,-0.981950358448205,-0.12768441199332,-0.188160986597419
94.1994445964428,108.721433652534,4.46938700947107,-1.03444642270823,-0.0725985471075744,-0.265171725548567,-0.979353142451512,0.0817977574404885,-0.145035031680049
95.2015663474704,108,4.64545322470261,-0.987511416440327,0.0994725077364168,-0.223928054774982,-0.942113279878544,-0.317664392081161,-0.136698918289336
96.2036880984961,107.434380300961,4.70632490158665,-1.03253030978429,-1.47147260874395,-0.354592132070259,-1.04187832161392,0.397561118189823,-0.137300844059319
97.2058098495218,105.43013679891,4.32149010675777,-1.972663289738,-1.17558272286108,-0.340947730959742,-0.616055916552449,0.392722479414585,-0.0571755204620681
98.2079316005475,103.425893296859,4.00539632149795,-1.34705283243308,-0.0253890018849891,-0.0646942468060598,-0.518943399455827,-0.498227332202874,0.0655307272761621
99.2100533515732,102,3.94851088030098,-0.221445475230116,0.453569306440893,0.0278162399404241,-1.03076004923392,-0.588589013677505,-0.0326232180352671
100.212175102599,102,3.88115668064302,-0.628892976625656,0.614898898030292,-0.00381269520558282,-1.56367609815508,-0.297684808640538,-0.207005386189657
101.214296853625,102.293418604648,3.77531592170552,-1.87239674416994,0.487909848119154,-0.715652111692125,-1.31791334108604,0.6386847922676,-0.152714151293188
102.216418604652,103,3.66947516276783,-1.32185298540736,0.0596779499860341,-0.413107579326884,-1.0374280588197,0.697044317348621,-0.243247109897144
103.218540355678,103,3.62117572585504,-1.18011482764342,-0.00950959111832888,-0.204726041850252,-1.06841423529274,0.151323569493076,-0.308948439405196
104.220662106703,103.299783857727,3.77665491552668,-1.01251289384606,0.0652660363829877,-0.522871603412873,-0.906416841659014,0.10212362380769,-0.281491079310456
105.222783857729,104,3.82984478528052,-1.03636262710009,0.0503404395571796,-0.20948562296585,-0.974054368337528,-0.19433495191028,-0.328904368474321
106.224905608755,104,3.52954898136816,-1.07382608328344,-0.11366791213432,-0.441340172152617,-1.09211551915462,-0.035833946688408,-0.0278310194283791
107.227027359781,104.306149110804,3.2292531774558,-0.925846461945141,-0.427571078526555,-0.411701937585553,-0.881804127769996,-0.461784459945807,-0.303926016141426
108.229149110808,105.308270861831,3.76625502714309,-0.999934875537535,-0.145002902019537,-0.52756698274467,-1.04008142270303,-0.119559481715562,-0.174733677639623
109.231270861834,106,5.89624211839879,-1.35548503419659,1.54357513415816,0.188075666878964,-1.38628053365821,0.440723696497367,0.119415590982204
110.233392612859,106,4.08095368311205,-1.49914913944311,-2.06901355955012,-0.736849541678353,-0.876974783515971,0.478030448952099,-0.000621126085383436
111.235514363885,106,2.64180163140908,-1.79218371550954,-0.858406252104024,-0.200480914987281,-0.594820628860759,0.0680863889692811,-0.240286389436134
112.237636114911,106,2.60506628042378,-1.31344864981501,-0.146091335589652,-0.195982735061632,-0.483748961066533,-0.756831601668908,-0.110205399208483
113.239757865937,105.68112038304,3.18001359263975,-0.466365473068007,0.0658211825513534,-0.120332370967302,-0.817731084819527,-0.425238044878343,-0.28556720684567
114.241879616964,105,3.63967757852264,0.0459205406835419,0.844132760907393,-0.11868797964076,-1.46259434848016,-0.310849184679914,-0.0636471475471812
115.24400136799,105,3.74115242703151,-1.11723525349783,0.259162266337144,-0.933695130503017,-1.50967347305281,-0.0301059189203065,-0.2009819826851
116.246123119015,105,3.89181575531467,-1.97752746648432,0.635287190425856,-0.492856485369825,-1.26212748168628,0.831231035331118,-0.355779160104727
117.248244870041,105.327366621064,4.19185601818052,-1.60570776196628,-0.0980059264960716,-0.273019719972145,-1.08395985225731,0.752587152940102,-0.271509612311503
118.250366621067,106.32948837209,4.42308688744185,-1.19989340116208,0.0320126726439059,-0.235761371067972,-1.01554756550704,0.380975343217482,-0.303495379565039
119.252488372093,107,4.45002392010942,-1.02735374828949,0.0456885839951403,-0.215518105337651,-1.01466214774281,0.155770164158627,-0.125641766757793
120.25461012312,106.666268125857,4.64879416346154,-1.05479539343631,-0.0998318741335184,-0.381585723204306,-1.08435021511492,-0.154473135610021,-0.108905258755592
121.256731874146,106,5.34646130530813,-0.994252852864964,-0.0322859121923886,-0.635840808778427,-0.882804277100111,-0.0907541621973879,-0.234979866613997
122.258853625171,105.662024623805,5.73065178461003,-1.50729932009475,-0.786923810297481,-0.343026651299438,-0.937527013439221,-0.250064067867597,-0.477290995630035
123.260975376197,105,5.22459700237124,-1.50021712859856,1.23028388271337,0.307890463675875,-0.571321221079151,-0.183657684918845,0.040267257230633
124.263097127223,105,4.71854222013245,-1.95958843194164,-0.758559440487496,-0.339508003420311,-1.15878904651992,0.804600991759439,0.171948834904241
125.265218878249,104.655659370728,4.30945277526686,-1.86863912037766,-0.650884721740659,-0.227525303145298,-0.454602686989992,-0.295994098716543,-0.0936157927484936
126.267340629274,104.346462380297,4.16687089253092,-0.504138726588197,0.131350985234164,-0.148983205564686,-0.744298746545907,-0.591763068998981,-0.234533765362512
127.269462380302,105,4.02428900979473,-0.342354384528493,0.248175415491296,0.0515570436311858,-1.04058566384027,-0.48589213943343,0.0303016031748364
128.271584131327,105,3.94767161323532,-1.13486339998636,0.18418472940416,-0.649574277647785,-1.36153817656839,-0.524711900052537,-0.00777906123232501
129.273705882353,105.352827633376,4.04660608310533,-1.97580167920652,0.674659665876616,-0.528695119000051,-1.38177412402837,0.737865136167254,0.132815870591837
130.275827633379,105.645050615598,4.13687362792063,-1.19606620109462,0.0957773965345357,-0.408292648287734,-0.995538166110396,0.412187216497465,-0.316305607858688
131.277949384405,105,4.20456027139075,-1.09183310806781,-0.103829468897808,-0.379150830378032,-1.05758677734312,-0.0343120359077212,-0.307510798925054
132.28007113543,105,4.27224691486086,-0.961383853123824,-0.0362979813532887,-0.326242444004116,-0.948102182413437,-0.132522939177501,-0.122984395328746
133.282192886458,105,4.34677322079349,-1.07437541982981,0.0703590274411829,-0.230115319034413,-1.02329783151358,-0.00846390907501647,-0.0672436187448194
134.284314637483,105,4.43856757318744,-0.722291246064643,0.178628737414121,-0.440914388610567,-0.859444803568153,-0.258508314906165,-0.437603059717177
135.286436388509,104.634441860468,4.45298938883721,-1.39439186045336,-1.27150595350392,0.28418567556865,-0.983159817090163,0.281730955048827,0.186069990705266
136.288558139535,104,4.27607982551989,-1.91316120936317,-1.85847527902782,-0.702863481240344,-1.1115400123085,1.03934421270891,-0.316561426064578
137.290679890561,104,4.10696122588244,-1.24668223802182,-0.098920051271528,-0.28021789740045,-0.619408535578262,-0.627978022013582,-0.0416868771306443
138.292801641586,104,3.956716452157,-0.298786145398938,0.191034513291465,0.0217224793974822,-0.895828240919477,-0.433194974699213,-0.0329133772665008
139.294923392614,104,3.80647167843128,-0.549226190830993,-0.132773068398225,-0.149363775633088,-1.50412181714542,-0.575066431372319,-0.209474831281201
140.297045143639,104,3.73746318189471,-1.97671651595976,0.45912416388423,-0.469172480483437,-1.36370779204206,0.768064874636999,0.168235800631863
141.299166894665,104.378288645688,3.8593362186457,-1.19172831736683,0.141254600730954,-0.341804482623065,-0.981915292465484,0.499864722855277,-0.245002313820346
142.301288645691,105,3.71104656995232,-0.997960705311183,-0.0774078278687322,-0.425542280434436,-0.958281105232717,0.0400325040526347,-0.236970687824524
143.303410396717,105.38253214774,2.940610357155,-1.05126995075406,0.115969100935924,-0.297890146914398,-0.956780095763616,-0.0389286558227776,-0.114660327929457
144.305532147742,106,2.56402599972597,-0.921045408665892,-0.22778559885972,-0.286734093913149,-1.00902601722027,-0.0221332446245262,-0.26561413290862
145.30765389877,106,3.07648433995475,-1.08474554258933,-0.22242884029277,-0.319312607692904,-0.852960716286294,-0.669104636982643,-0.346369582225165
146.309775649795,106,3.5889426801826,-1.22270194631453,-1.98285384063822,-0.922223394174549,-0.717219898384453,0.0842159808259856,-0.317799844534584
147.311897400821,106,4.02685182703149,-1.90666144320013,-1.74160204928761,-0.524942693310266,-1.24441752885545,1.00207334511998,-0.313999350914176
148.314019151847,106.39314090287,4.30140312316,-1.61594926994907,-0.0999174078405781,-0.216453969494151,-0.582479491660531,-0.477844905055543,-0.0625541484343594
149.316140902873,107,4.57595441928851,-0.478118295621795,0.152436930233024,-0.0694941018875616,-0.826377730492399,-0.522865511647465,-0.324732314166353
150.318262653898,107,4.50758066568462,-0.569902933077402,0.744977246511295,-0.230686971534685,-1.43008361336366,-0.257953453817602,-0.0711469576631786
151.320384404926,107.399506155949,3.70950593499257,-1.97705967989053,0.57115591148061,-0.0902505393074113,-1.45792909026896,0.522267613261828,0.22323235588732
152.322506155951,107.598372093025,2.9742158646509,-1.31332236047046,-0.0261924083748585,-0.2860121325651,-1.04419572609109,0.377238913722459,-0.298088866258581
153.324627906977,107.403749658,2.36995649121742,-1.12649083174364,-0.0268458821894335,-0.330129455234678,-1.04074338782347,0.156580835171809,-0.242549178623146
154.326749658003,107.594128590974,2.25157420401834,-1.01449008943221,-0.11353085696003,-0.461640896033321,-0.927178509919873,0.0612275577598829,-0.165801549254616
155.328871409029,106.592006839948,3.12785702146336,-1.0739275671312,0.0413933505486713,-1.0275895359475,-1.00420668594309,-0.16661452951496,-0.358356879218373
156.330993160054,105.589885088923,4.00413983890838,-0.946782794365251,-0.13622004552304,-0.486671549022853,-1.12284371422235,-0.147572460886253,-0.131129908404503
157.333114911082,105,4.880422656355,-1.54781323118666,1.19885831192013,-0.0777911757042002,-1.08397822294267,-0.489728759110973,0.00629074803191228
158.335236662107,105.414358413131,5.1144180683921,-1.15607024901636,-1.42688509833024,-0.397333768408503,-0.545563203672634,-0.22971607163296,-0.133351495998842
159.337358413133,106,4.08278884240746,-1.8096532763342,-1.80575181258451,-0.661418915867987,-1.08747435020987,0.833353050598332,-0.119079577286754
160.339480164159,106.418601915182,3.38539944099864,-0.918109814870539,-0.111815652613244,-0.138872329894232,-0.627885594921337,-0.682094761388892,-0.0862470746773513
161.341601915185,107,3.33429457210216,-0.380553235559887,0.166255633389525,-0.0381885964651611,-1.24440834467464,-0.209423001136572,0.0128697668031317
162.34372366621,106.577154582767,3.28318970320569,-0.995370889640974,0.453646416411373,-0.360706926666117,-1.43835323942239,-0.62785533119672,-0.395173681857176
163.345845417236,106,3.29000744913805,-1.97746847150026,0.728446716188943,-0.452649429924011,-1.31909713042498,0.718222448497158,0.0236008733317518
164.347967168263,106,3.40571576691753,-1.24031174966135,0.0114153846804921,-0.185028206975215,-1.08635340765488,0.3617053135305,-0.0384771465537685
165.350088919289,106,3.52142408469679,-1.00727242065637,-0.0211037975362724,-0.2368978523938,-0.992230220246976,-0.0509487143645678,-0.174136459644265
166.352210670315,106,3.59684185339945,-0.9946430135426,0.106887438184261,-0.141470497643409,-1.03645752120447,-0.0920246106383175,-0.0699424667308558
167.354332421341,106,3.5986005770725,-1.08173926071747,-0.0226244907471822,-0.542528685462814,-0.776244742854171,-0.186378790752489,-0.434380798964018
168.356454172366,106,3.52814390265402,-1.2042469890522,0.019825333349387,-0.10200754064702,-1.12114561148495,-0.640388807742457,-0.155237267849697
169.358575923392,106.437697674415,3.32808031627925,-1.02183769476704,-1.57120343021661,-0.386433163377176,-1.03577948371849,0.595170694178222,-0.247181086506503
170.360697674419,106.560180574557,3.28617092685377,-1.94024438098449,-0.990187150647045,-0.476273255815959,-0.658458072920586,0.0924107460816028,-0.308264244440883
171.362819425445,106,3.52293555215693,-0.947884160134897,-0.0181606891512069,-0.196221790197318,-0.57537364191336,-0.647039505148502,0.0336142741200269
172.364941176471,105.555937072506,3.7597001774601,-0.321179114854996,0.244512857834909,-0.109503535188131,-0.902448142720199,-0.435232312724498,-0.199558244739068
173.367062927497,105,3.95850400350201,-0.560532811788389,0.624136993612923,0.0273629266078758,-1.43103695381814,-0.233308341044893,0.0928210901713697
174.369184678522,105,4.09222712995888,-1.81748989983751,0.445879221312546,-0.455486771835146,-1.47455210089232,0.494963497903206,-0.0649086305103594
175.371306429548,105,4.20166622183305,-1.71425266077504,0.101374491590331,-0.48958278270534,-1.16554457763072,0.596632955351426,-0.577427487355352
176.373428180576,105,4.27022137082084,-1.1635372147735,0.0880030944468497,-0.299037882622035,-1.05767802188923,0.317381033648949,0.000754683229697713
177.375549931601,105.454671682624,4.42646810779765,-1.0124491838252,0.1231018638708,-0.594893853114084,-1.02709905947262,0.0964080972640904,-0.25521716833687
178.377671682627,106.45679343365,4.72770590615597,-0.997420119555189,-0.0174365980300488,-0.262296791100924,-1.02467617783524,-0.180727630636609,-0.187365205656793
179.379793433653,107,5.02894370451429,-1.06965391176602,0.161329975094927,-0.244826083576991,-1.03621141592182,-0.0338065278465794,-0.247001542064804
180.381915184678,107,5.33018150287262,-1.19364507799055,-0.229478162799918,-0.226175979488255,-1.33664159666127,-0.159468841208299,0.0382905666409711
181.384036935704,107,5.63141930123094,-1.28372755198608,-1.60112108662506,-0.610600925692664,-0.853401970564649,0.502522554421685,-0.198153670542875
182.386158686732,107,5.46257115066967,-1.96478596990337,-1.14671107114217,-0.459087780172223,-0.803738334798487,0.0483041613103516,-0.043502029222601
183.388280437757,106.53259781122,4.55055350668453,-1.14932362977199,-0.289668704045194,-0.135458673952728,-0.63865098139569,-0.564453591380719,0.0358999841311287
184.390402188783,105.530476060194,3.63853586269939,-0.412680822351269,0.275072418143564,-0.0868383438214415,-0.943190344992374,-0.196230608586487,-0.0682073124631752
185.392523939809,104.528354309168,3.08416653377565,-0.872204706540764,0.385980489795506,-1.59430789974707,-1.62631072846879,-0.749773259585354,-0.668799607753327
186.394645690834,103.526232558143,3.08032339686047,-1.63830068020928,0.108572195438849,-0.507775447673975,-0.989912002321436,0.982380437228869,-0.212035381556103
187.39676744186,103,3.02181980902884,-1.19514761354214,-0.0186056360966869,-0.268728121346379,-1.06120137550752,0.271838763916798,-0.15494467857912
188.398889192888,103,2.88065425836743,-1.02273586930441,-0.00343636633488628,-0.232950320382996,-0.945338149801211,0.0950852159705197,-0.144328461424948
189.401010943913,103.480132694936,2.73948870770627,-1.03079871500437,-0.045551767974445,-0.163748852802639,-0.930208,-0.0278707310052138,-0.121595489813106
190.403132694939,104.482254445962,2.77535315837214,-1.0388716689467,-0.12160452667586,-0.357517909712954,-1.00321233378559,-0.000274993622930833,-0.166316723663587
191.405254445965,105.484376196988,3.07195113302322,-1.67561411217514,-0.606104208474049,-0.693560741140772,-1.10538387637452,-0.112687597547715,-0.183119134200554
192.40737619699,106.486497948013,3.24480838273598,-1.80940723173726,-1.1077780490823,-0.268846628618144,-0.955855731192873,0.399614349801281,-0.26254585745402
193.409497948016,107,3.23858854706795,-1.83265312124252,-1.30019857124512,-1.00738241483215,-1.11304587323261,0.484462928202766,-0.109427589580179
194.411619699042,107,3.23236871139992,-1.39267492477154,-0.311330352392674,-0.293873598274009,-0.649415325783081,-0.533424852043295,-0.0497280401626208
195.413741450069,106.507136798908,3.27757451917927,-0.39734299743295,0.0480847865120723,-0.0687210266735582,-0.770886761275981,-0.359383,-0.179984259227331
196.415863201095,105.505015047882,3.39527705924307,-0.317250431583522,0.314413989452812,0.0146539250232753,-1.50659359962631,-0.351895137376414,-0.0690537773086367
197.417984952121,105,3.51297959930688,-1.97761709712702,0.47876302623219,-0.444670173136908,-1.43014589088981,0.410240640556178,-0.0884985698199552
198.420106703146,105,3.69763983134737,-1.28685002736113,0.0508532144700959,-0.459288035573236,-1.03752536234164,0.444651593524017,-0.211623787446455
199.422228454172,105,3.97426050889175,-1.12514446580295,-0.121730508531295,-0.10738808427857,-1.03895567941734,-0.025567241547052,-0.31058744570034
200.424350205198,105,4.24932669615569,-1.02119268125969,0.0552911768137038,-0.475084570449495,-0.977276632752436,-0.0330194777940602,-0.418472516766371
201.426471956225,105,4.52229463991808,-1.05067200533736,0.0258411466418618,-0.478669624997863,-1.26011729262168,-0.277691023410474,-0.216764853772501
202.428593707251,105,4.58710426342676,-1.10151391724431,-0.41461352437859,-0.859128106991838,-1.49336901451172,0.865192435382143,-0.153714263906352
203.430715458277,105,4.37576179674419,-1.20368256587517,-1.56559797290673,-0.635936246408111,-1.1299928781481,1.13695171699842,-0.756854974900064
204.432837209302,105,4.35473924781115,-1.81283748153051,-0.652902777697814,-0.503111729956473,-0.645937273856025,-0.0523135058126649,0.00194764799822112
205.434958960328,104.485919288649,4.58188350430447,-0.554295764033851,0.0218104070466116,-0.177111113556056,-0.707603637816525,-0.631449422880184,-0.197426891343953
206.437080711354,104,4.80902776079779,-0.50012261341504,-0.158734880034675,-0.0961848311533674,-1.42219340696727,-0.248862680785187,-0.25142099247138
207.439202462381,104,4.78916138396696,-1.96600229987688,0.57867543826772,-0.610253281255388,-1.48006284472408,0.149067517420519,-0.0391762604858047
208.441324213407,104,4.45541475600536,-1.23967289740071,-0.0253225938663295,-0.632540523390516,-1.07724972868383,0.425225547064933,-0.282194476252262
209.443445964433,104.522567715456,4.33644513392613,-0.981831342615064,-0.0360813207825874,-0.487472608003406,-1.00207501533208,0.152645982970461,-0.232345914591762
210.445567715458,105.524689466482,4.48575125361145,-1.02456141358815,-0.253558888282208,-0.0365927400848547,-1.05610340173439,-0.228537447340523,-0.12557755859418
211.447689466484,106,4.50379796191526,-1.09855584610145,0.0567827221850365,-0.118607220656538,-1.08201792658826,-0.0223321053126464,-0.0729457849857132
212.44981121751,106,4.36067493343377,-1.56880702488188,-0.620466601878715,-0.314979202930777,-1.13150784609815,-1.47012961697743,-0.0314224241293171
213.451932968537,105.46894528044,4.21755190495202,-1.39324544390345,-2.03772944972925,-0.404013423040735,-0.836882076574683,0.347600809507574,-0.0618636044718707
214.454054719563,105,4.05147635735287,-1.7154236470563,-0.272016976466662,-0.267365776468641,-0.649215517643959,-0.587080047039898,-0.0759107611724337
215.456176470589,105,3.85793157296852,-0.474682651084699,0.194425357186211,-0.112054467419157,-0.829064365082247,-0.327133171937729,-0.175434853825455
216.458298221614,105,3.77954703214089,-0.153161722685152,0.120891322815276,-0.150538189601685,-1.44055182968805,-0.580453598629921,-0.0217502329280718
217.46041997264,105,3.83665294012309,-1.97710983036934,0.365744033883108,-0.342586204039123,-1.39805973462517,0.624564512831461,0.161064037095787
218.462541723666,105.541663474689,3.40421264434416,-1.23782751937881,-0.00179851013546449,-0.121385223769844,-1.05134894072224,0.443873230454285,-0.0564015982620574
219.464663474693,106.543785225716,2.40553318153142,-0.98063537892856,0.0023693050460064,-0.363016514916216,-0.954269989294687,0.158749963917937,-0.157919191039377
220.466785225719,107,2.30512083930272,-0.959516441861825,0.102777874422024,-0.884984907028248,-0.971416046508191,0.0842351465146945,-0.202804511627063
221.468906976745,107.548028727768,3.22616760026461,-0.932475702800878,0.042272290746492,-0.593525172043445,-0.876039006566097,0.139073523302586,-0.27434575574863
222.47102872777,108,4.14721436122649,-1.25370951296534,-0.297649938980999,-0.318511728367415,-0.881167691858655,-0.896992360833153,-0.399928440877783
223.473150478796,108.552272229819,4.54034932443237,-1.05317067100453,-0.818253110702685,0.103646354909035,-0.73546140993421,0.270790193239611,-0.146674800834422
224.475272229822,109,4.34828266963079,-1.3173131997292,-0.0873461592956067,-0.189590372779318,-1.10966749657664,0.717171652031518,-0.285113755947786
225.477393980847,109,4.1562160148292,-1.09041846078083,-0.0905252419975304,-0.243888759916264,-0.759452311816046,-0.624098799843658,0.0498169185270188
226.479515731875,109.558637482898,4.13817461534892,-0.231850522311745,0.387348016856437,0.0612248432864336,-0.965331914625166,-0.353868991792672,0.0208925193923202
227.481637482901,110,4.30819459162794,-1.00186454487498,0.176482442514691,-0.919089700689841,-1.61591478317459,-0.828808512949804,-0.0983015029328363
228.483759233926,110,4.42261034798905,-1.78689514958088,0.28758683182654,-0.942458736223308,-1.11998331628022,0.763195545573031,-0.440173877277843
229.485880984952,110.565002735975,4.47794751108069,-1.19403733105307,0.0557988948532997,-0.258598524672925,-0.993128419970653,0.225104629266464,-0.0160699000545568
230.488002735978,110.432875512999,4.53328467417233,-0.992669057455338,0.124492963227817,-1.03587547328782,-1.0631043638729,-0.0319743931371859,-0.144240920678094
231.490124487003,110,4.59572987294111,-0.952124256357943,0.0898385929919796,-0.337663146914392,-1.00707063337484,-0.0240363534977739,-0.253418890187823
232.492246238031,109.428632010946,4.66553767411768,-1.07263760546789,-0.164403735434157,-0.471745931579746,-0.926630686358308,-0.0995295658339538,-0.487288791266046
233.494367989057,108.42651025992,4.6120935522845,-1.06790895393916,-2.03626524033867,-0.482006247473366,-0.97722825148403,0.325860452885718,0.161350187267379
234.496489740082,108,4.43312796917466,-1.91173764298957,-0.817557651939414,-1.02120028973515,-1.13053391381215,0.642973400036728,-0.269737915556499
235.498611491108,108.577733242131,4.25416238606481,-0.638534135438423,-0.0684164775995714,-0.109442301525781,-0.691903190079363,-0.584866131745831,0.0439211209529123
236.500733242134,109,4.09257547151856,-0.248559995271237,0.365457557464591,0.0172474986016626,-0.996350693033805,-0.384609710394141,0.0819446964320842
237.502854993159,110.163953488365,3.94824321612416,-1.1378954702959,0.263107411015901,-0.727804923273194,-1.46713743022707,-0.689112376730097,-0.0158280934919741
238.504976744187,111.58409849521,3.80391096072951,-1.36863404244721,0.0160280781622789,-0.589721879759667,-1.18681511355324,0.508530390762955,-0.256141164724692
239.507098495213,112,3.69266783693568,-1.09150958618779,-0.0278493029292084,-0.214673439137684,-0.989304913474913,0.247631542211164,-0.0726282158602451
240.509220246238,111.411658002738,3.61345345292294,-1.0030023488388,-0.0384367590631214,-0.133824954848402,-0.869899965816915,0.111013506833785,-0.178287767434639
241.511341997264,111,3.53423906891019,-0.986045163907909,-0.087421519634183,-0.525356967068221,-0.941058723632373,-0.00489536038030067,-0.200213766354153
242.51346374829,111,3.60474383942532,-1.45490084267501,0.507569242174062,-0.513303647180991,-0.924112925033632,-0.304599311353469,-0.409746542545911
243.515585499315,111,3.81653225028709,-1.05773422974062,-1.6561139167329,-0.58404104758535,-0.748906577551544,-0.156204760391824,0.00560220352524474
244.517707250343,111,4.02832066114925,-1.9599078905588,-1.20363935201351,-0.641410555004087,-1.12980183158458,0.868439270349956,-0.56810586175941
245.519829001369,111,4.12026134999999,-0.753559433630258,0.00186578331873242,-0.131086103892367,-0.622375519323223,-0.620316143638443,0.134149761902969
246.521950752394,111,4.101947575,0.0132415667638586,0.826207749156119,-0.0430147608449236,-1.08955993052215,-0.390884816536626,-0.0274000723560378
247.52407250342,111,4.03302882155953,-1.50652225239639,0.3323366261969,-0.723469806429132,-1.60990353742503,-0.79493401858466,-0.0648014312683694
248.526194254446,111,3.91833932756048,-1.93699429002127,0.583499453943991,-0.5402230941048,-1.27168294937439,0.760925635275407,-0.387691933567039
249.528316005471,111,3.80364983356143,-1.2238482841975,-0.0113275093421648,-0.383177896331761,-1.03630974408851,0.251348752161101,-0.0667254114272351
250.530437756499,111,3.80471303612182,-1.01932955996419,0.0897180047871792,-0.253360243958434,-0.984707355678043,0.249266861838368,-0.157677227084104
251.532559507525,110.388318741452,3.90783637491112,-0.965353514924235,-0.0165993253033824,-0.443943175867653,-0.998358870070673,-0.0791060549099155,-0.221777746635609
252.53468125855,110,3.90467898050615,-0.928832753216052,-0.0424975314002544,-0.619272718465573,-1.24267795624623,-0.0669160892121567,-0.101147502729553
253.536803009576,110,3.80939390401279,-1.50131048600261,-1.41403507347184,-0.374945817867285,-1.56019191905191,0.184209065528661,-0.0438561901333994
254.538924760602,110,3.71410882751942,-0.930881210480653,-1.47984733475339,-0.524819262433773,-0.68866984001415,0.161552955378555,-0.0595920818794549
255.541046511627,110,3.6882397497127,-1.90718735430821,-1.02937508262558,-0.441110984130862,-0.777554753822409,0.0327599777096687,-0.241810192215966
256.543168262655,110,3.72102416279756,-0.686894056096648,0.0734393954501604,-0.102047309069447,-0.59841518660228,-0.419695185252988,-0.12767010139342
257.545290013681,110,3.79809145058829,-0.109323439687341,-0.0377709180939692,-0.0708419616730709,-1.47088568627205,-0.210008305871563,-0.103987838817384
258.547411764706,110,3.91194250272232,-1.95228234917851,0.353745375114764,-0.724697573994932,-1.34967671956521,0.778290996852674,-0.114129948841972
259.549533515732,110,3.86653067934339,-1.27534010123204,-0.0132655459620845,-0.435225764565609,-1.03484611924268,0.470935784839095,-0.420414885907589
260.551655266758,109.369222982219,3.6910691819563,-1.0024464117662,-0.0204952322243503,-0.434010327623886,-0.954077549249217,0.133534270177309,-0.225466611489165
261.553777017783,108.367101231193,3.51560768456921,-1.03258388983927,-0.0622358687927502,-0.402152824969469,-0.947237244619233,-0.077189195035376,-0.0938368792293244
262.555898768809,106.729958960335,3.49869376738019,-1.04933414683075,-0.0896249022808148,-0.374077604059264,-0.946521554487196,0.170906323856704,-0.105880109425854
263.558020519837,104.72571545828,3.60796011250348,-0.662026128804919,0.256343703371782,-0.202267235157409,-1.19120164650017,-0.180547458958004,-0.186569373274085
264.560142270862,103.360735978114,3.49617516874139,-1.73048401206477,-1.8980459481998,-0.807759603481286,-0.815590411159637,0.236749381034153,-0.332989533551507
265.562264021888,103,3.21146235805748,-1.68020178465912,-0.516181098953688,-0.782055370958465,-0.837413008707134,0.298635729982068,-0.175897833278423
266.564385772914,103,3.12975563021885,-1.11794034209424,-0.0549669142322768,-0.191193664295322,-0.622721114772607,-0.613918675104562,-0.103104461171943
267.566507523939,103.645629274963,3.20414980860916,-0.610352014330754,0.0544850984343293,-0.254633483658085,-1.42056059096749,-0.169808807885785,-0.00586454596134448
268.568629274965,104,3.27854398699947,-1.97411627770192,0.357105108502047,-0.474258058295562,-1.40626571820197,0.366004935987325,-0.112033267162461
269.570751025993,104.649872777016,3.32316501238031,-1.26029783926395,-0.0907578274353194,-0.371792712659991,-1.03679263316356,0.247220540246597,-0.263717875657592
270.572872777018,105,3.3454772531669,-1.06122763794802,-0.083765119373189,-0.334889500664176,-1.07291114911246,0.0177627585653008,-0.17317891929125
271.574994528044,105,3.40906581209302,-0.999755593605271,-0.02816733761411,-0.315973377876776,-0.971485613366087,-0.0786614345853915,-0.30638875346552
272.57711627907,105,3.50305147071588,-1.0103110145946,-0.157156702517724,-0.608845179946472,-1.05481249194789,-0.226413645473605,-0.432530852078668
273.579238030095,104.341640218881,3.59703712933875,-1.10003461514864,-0.556956760474415,-0.0749739400146423,-2.00011436452016,1.73656567948633,0.259662094074028
274.581359781121,104,3.5453877424762,-1.58466855540136,-1.38455532802589,-1.2256747260227,-1.04635802112565,0.724930514878599,-0.494551454881612
275.583481532149,104,3.3892471524486,-1.63781233926361,-0.0328971991755001,-0.0866925099169548,-0.735275982985646,-0.252608552407992,-0.144920373051521
276.585603283174,104,3.27396912496577,-0.747527883273433,0.0253658919623275,-0.0759552886791748,-0.74387220943666,-0.599425872843823,-0.0544226818119962
277.5877250342,104.666846785223,3.18750271988144,-0.0789666234179749,0.200766004339793,-0.221316605130584,-1.40602680027409,-0.272354359233993,-0.0337928968062492
278.589846785226,104.331031463751,3.1010363147971,-1.88166206565706,0.319621584902658,-0.256867191876735,-1.32021561971326,0.761714555135589,0.0354039025479146
279.591968536251,104.671090287275,3.20474910232545,-1.14206876538457,0.00516718088683192,-0.328104307664338,-1.05940637346017,0.248011163953531,-0.181334036319811
280.594090287277,105,3.43908024197654,-1.0532273301376,-0.167067663906227,-0.273806197018678,-0.989173320451243,0.00610432739409523,-0.332397223667102
281.596212038305,105,3.84800218968571,-0.973768420587539,-0.135082015474338,-0.325433343771754,-1.00354185978406,-0.145091695344127,-0.155101906836579
282.59833378933,105,4.37474744567735,-0.991844347926288,-0.012236807461181,-0.129745653613738,-1.05633428113294,-0.0649596918100446,-0.113358251884594
283.600455540356,105,4.90149270166899,-1.04242677796404,-0.0281356695348476,-0.20565393637708,-0.922655517320901,-0.0393051086095769,-0.0592878810360519
284.602577291382,105.681699042405,5.03732421470591,-1.40144174280277,-0.564945109314775,0.157922213857749,-0.94322470508447,0.214452506062673,-0.180897220775239
285.604699042407,106.683820793431,4.91623784352947,-1.91807325171793,-1.00606416049165,-0.995183738745191,-0.752005493333526,0.163841226050978,-0.252936207024589
286.606820793433,107.685942544456,4.43393690402246,-0.750430443234479,0.0733671183922937,-0.0923601140640657,-0.686203274414624,-0.608934835586881,-0.222758506422636
287.608942544459,108,3.71840861216677,-0.124808438174712,0.188048235879178,-0.276845145255118,-1.40717340768319,-0.260143376941645,-0.0781536386632733
288.611064295486,107.30981395349,3.00288032030977,-1.87219002325127,0.248043852087351,-0.361228974416378,-1.41923669102988,0.226604775215101,-0.189345126910959
289.613186046512,105.61538440493,3.00434764363891,-1.66199535117779,0.044206438076346,-0.588472396543582,-1.1447250647058,0.573347767509131,-0.303638922134311
290.615307797538,105,3.45655508378926,-1.08294706429636,0.0746277341594316,-0.646506503967487,-1.00625,0.319901091654992,-0.103798185704516
291.617429548563,104.303448700413,3.9087625239396,-0.946043132489641,0.0674991544189114,-0.522649035634105,-1.01093024271573,0.0853524554242628,-0.156305451026018
292.619551299589,104.698673050612,3.98938043991119,-0.962777683175331,0.0599785915111507,-0.16533840038426,-0.991298812173331,-0.110332230494583,-0.309990873729085
293.621673050615,105,3.8425946564297,-1.0634876365674,-0.176529595297861,-0.261110121206419,-1.0825529652512,-0.137080741038972,-0.0981054418718069
294.623794801642,105.702916552666,3.72549296545823,-1.306194194266,-0.480556469900935,-0.597282598539516,-1.34503323904155,0.55111606299534,-0.00987664535394402
295.625916552668,106,3.62623280601913,-1.24900266585775,-2.12114318399956,-0.48429072381365,-1.16618299382438,1.16084694782534,-0.39856752943169
296.628038303694,106,3.54037405041041,-1.57892906245699,-0.343508205012148,-0.279648124079158,-0.646864007256079,-0.692026795758518,-0.0644295869686426
297.630160054719,106.709281805743,3.46242568020979,-0.391465655271542,0.265137834987376,-0.0498066796318364,-0.856844070460879,-0.498453597492796,-0.133034666689867
298.632281805745,107,3.38447731000917,0.0898113998730542,-0.354069990759109,-0.0566742326470843,-1.54214228727948,-0.550764447882043,-0.250362633102809
299.634403556771,106.286474692206,3.6292143837205,-1.97713536798882,0.577832225728888,-0.727905917058566,-1.45218340308717,0.501556480301232,0.0998545452906015
300.636525307798,104.568705882357,4.05928996500023,-1.14442009803952,0.100450994116135,-0.484878294106264,-1.05371595588252,0.297829963233897,-0.0546089999978972
301.638647058824,103.282231190153,3.94337178314627,-0.991513739330167,0.0255994856119034,-0.30388935561809,-0.923440238107754,0.0140360632778387,-0.164712291975533
302.64076880985,101.560218878254,3.51954777139081,-0.967854495020558,0.0558786095081067,-0.635593659283857,-1.05536236849714,0.0275970718085456,-0.0147066954775774
303.642890560875,100.277987688101,3.09572375963535,-1.01202592065708,-0.108687355903984,-0.34385786223065,-0.965901515290171,-0.297560196948041,-0.486218569135475
304.645012311901,100.724134062924,3.38511051285866,-1.27564914090388,0.570618709410015,-0.0133519013702331,-1.52413973132397,0.491746030568888,0.368418469484889
305.647134062927,101,4.06573156372029,-1.55633124998344,-2.07016997095375,-0.683417232550194,-1.14397227179761,1.02493115550661,-0.514538345928149
306.649255813954,101.728377564978,4.22848139532141,-0.979309178954344,0.0137740500400822,-0.176590841878601,-0.509245370191186,-0.551296539812947,-0.0885398704823171
307.65137756498,102.730499316003,4.11237556924757,-0.168670615399516,0.550443531926042,-0.257067444456652,-1.16224527945525,-0.45466832244054,-0.18449510189593
308.653499316006,103.732621067029,3.99626974317373,-1.53659479066674,0.133154192002553,-1.08223574149637,-1.54903475790982,-0.505056479122669,-0.382588530495561
309.655621067031,104.734742818055,3.95815906046512,-1.75571660876025,-0.0546292743442501,-0.40929764220637,-1.16923981121589,0.361939388188704,-0.155543440746619
310.657742818057,105,3.96088483162791,-1.12484680232525,-0.0435660410583708,-0.235158099526194,-1.08158035567689,0.157220360733943,-0.124148388236535
311.659864569083,105.738986320106,3.9636106027907,-0.989441186728615,-0.0179239803465511,-0.204443976349943,-0.932778249367487,0.053787920578597,-0.238353319718815
312.66198632011,105.258891928866,3.8868426378385,-0.938127499866556,-0.0316800022396722,-0.340864170992067,-1.05958905061645,-0.0523728171000459,-0.140252375102289
313.664108071136,105,3.76961443540352,-1.42828641975075,1.33844177066606,-0.115181750118173,-0.993160509879565,-0.60748414264469,-0.410031547017036
314.666229822162,105,3.61246225174418,-1.29029518348409,-1.03314714660503,-0.225215206729219,-0.913353480366878,0.724580650101514,-0.511224180777856
315.668351573187,105,3.43537230651167,-1.78548417920075,-1.45520040703632,-1.12083611487181,-0.8714859781485,0.231349570476622,-0.152150656415101
316.670473324213,105,3.56779155804362,-1.03115332594524,-0.0373621306147005,-0.0564615630729218,-0.733946986585966,-0.548810041313852,-0.0184363301253678
317.672595075239,105.751716826262,3.85184964918353,-0.111420136135135,0.927445160349353,-0.139755824162371,-1.40850665527963,-0.267620417993191,-0.0489395927233517
318.674716826266,106.75383857729,4.13590774032395,-0.685281713625628,0.0878956548130575,0.00420646625643578,-1.45899033378489,-0.445995801770564,-0.394717785419732
319.676838577292,107,4.0833418270861,-1.77529370668478,0.0550734112258414,-0.333049445143804,-1.16348317031403,0.605136913643448,-0.1427609807122
320.678960328318,107,3.87055463487914,-1.03535545283899,0.0293177603174707,-1.28190163933591,-1.04350308709336,0.2084153921632,-0.104116007659646
321.681082079343,107.760203830367,3.65776744267218,-0.989527409782208,0.0458412470262549,-0.403460205677161,-0.907415218979805,0.102572714276096,-0.24489398394114
322.683203830369,108,4.07319536674384,-0.985996306978399,0.00506757581611497,-0.269489432555326,-0.963524730235118,-0.0843446599913526,-0.176382246526479
323.685325581395,108,4.77901977964377,-0.965877384294146,-0.349839294926767,-0.282923472435249,-1.08196306428542,-0.739010897163247,-0.485262989178233
324.687447332421,107.233430916556,5.07356680266746,-0.997937069219971,-1.86023851504776,-0.232384396442998,-1.03329613704972,0.213568084610414,-0.142154323940093
325.689569083448,107,5.18169908000917,-1.79781066858727,-1.88768546683634,-0.794429954851209,-1.12392730848125,0.892657158347747,-0.610288133609448
326.691690834474,107,5.28983135735068,-1.5855941655338,-0.34869629022443,-0.259621093776343,-0.593367407694279,-0.451586427120486,-0.0181760145476621
327.693812585499,107.772934336523,5.16338272809853,-0.462879078469095,0.280719160308224,0.0385610431081465,-0.840279703800639,-0.473939323324682,-0.0747761077467631
328.695934336525,108,4.93372648641597,-0.265193503311442,-0.427742317425279,-0.0339192585063337,-1.49821740014691,-0.520331425898723,-0.320410221080357
329.698056087551,108.777177838574,4.70407024473341,-1.70275473926816,0.0132319343997836,-0.363623783996704,-1.11866449521186,0.701698131854914,-0.306851771269693
330.700177838577,110.5585991792,4.59834178863206,-1.16995398084669,-0.0463740549375686,-0.120401082957638,-1.04568594117685,0.117558530642177,-0.105528397674915
331.702299589604,111.781421340627,4.5455199511354,-0.961177282062159,0.0263231459293146,-0.377924796594076,-0.963544074894761,0.00284456392235854,-0.304525182764787
332.70442134063,112,4.49269811363884,-1.01773622147769,-0.257559680432369,-0.671371075231903,-0.974064991410132,-0.198717442956452,-0.110492678928387
333.706543091655,112,4.43987627614228,-1.93367486656788,-0.569456571073408,-0.826170936200207,-1.13535654055943,1.06829081387596,-0.66272712471377
334.708664842681,112,4.38705443864571,-0.842582400127018,-0.0789354371888343,-0.173144293562356,-0.759314899620927,-0.502775147364902,-0.257451473043175
335.710786593707,110.42018331054,4.33423260114915,-1.77972640603597,0.0767060230824076,-0.319406665589588,-1.20082087616893,0.186295809004006,-0.613038515735716
336.712908344733,110,4.28141076365258,-1.2437873515807,-0.0287990445192346,0.0118624507626802,-1.05953797695509,0.135840690004415,-0.111841596188091
337.71503009576,109.205848153217,4.22858892615592,-1.00954783132906,-0.0848564361069687,-0.457386878883106,-1.00045259237029,-0.189046651002453,-0.0736736687334174
338.717151846786,108.203726402191,4.17576708865936,-1.32008946813725,-0.0507100743585315,-0.295071095249922,-1.02380169760534,-0.427993235024447,-0.522960112546293
339.719273597811,108.798395348835,4.12294525116279,-1.86949533716759,-1.18296681404198,-0.593710468617783,-1.10367213565754,1.19117532906354,-0.181550823488947
340.721395348837,109,4.07012341366623,-0.590533287305443,-0.044698653345093,0.100377644605308,-0.758009791377767,-0.439023142237063,-0.306078243509624
341.723517099863,109.802638850886,4.01730157616966,-1.85907512994111,0.204155262318751,-0.301096796868972,-1.3491945791169,0.5736756325135,-0.100151937486077
342.725638850889,109.195239398088,3.9644797386731,-1.07077417171668,-0.00252627290010713,-0.802112532804824,-0.987693394308877,0.0957152672340175,-0.144567804344147
343.727760601916,109,3.91165790117644,-1.00353569853008,-0.087605692500239,-0.252978938239332,-1.00381138529747,-0.167562360289906,-0.183573319698254
344.729882352942,108.190995896035,3.85883606367987,-1.38614358065632,-0.104560513170521,-0.063984249927478,-0.824835582832241,-1.09621530447038,-0.129659975705028
345.732004103967,107.188874145009,3.42889744510259,-1.94718176471013,-0.899893831738766,-0.284610562229132,-0.900857926618327,0.432398346242872,-0.269905180607898
346.734125854993,106.186752393984,2.86129067471288,-0.318300424002145,0.175684419608311,-0.0962121611663881,-0.927415454441573,-0.500636236794735,-0.0945009868476352
347.736247606019,106,2.89867052886443,-1.66258056414737,-0.0469412782725575,-0.420078007281803,-1.21421999795577,0.634818389017943,-0.14368717150015
348.738369357045,106.817491108068,3.15215722578638,-1.09462904788029,-0.118101034821942,-0.0992207631833843,-1.00677116382953,0.0500259586007531,-0.23137383221819
349.74049110807,107.819612859093,3.40564392270833,-1.00192320557943,-0.0205038611447108,-0.33313591707496,-0.994421624023826,-0.285637577620232,-0.433982988261127
350.742612859098,108,3.54578945931604,-1.23035742073041,-0.289806296571258,-1.14616253995877,-1.03556490423698,-1.13919608348346,-0.262777468545062
351.744734610123,108,3.64676324694939,-1.92803632693936,-0.99931748853056,-0.322381755027791,-1.08818789740026,0.584372035503657,-0.0638780992433703
352.746856361149,107.174021887828,3.80270953142267,-0.733936800813077,0.0361757419542802,-0.0540031375879895,-0.789073545419916,-0.613794417796359,-0.23596859423821
353.748978112175,107.828099863198,3.97723571517547,-0.952434469756536,0.262179867525097,-0.49286289925255,-1.50637482899896,-0.610914524885212,-0.418459216842706
354.751099863201,108,4.15176189892827,-1.20947392978369,0.0179407979523712,-0.339236950530979,-1.09460191427248,0.223880136889605,-0.300574090317358
355.753221614226,108,4.09890203381683,-1.02719876880475,-0.050141046479214,-0.274164961364524,-0.922874306599415,0.256804402700693,-0.278848288993828
356.755343365254,108.834465116277,3.97175282604646,-1.02728684340813,-0.0187017280155901,-0.547765562759523,-0.966280179073778,-0.200834495802913,-0.500316465133389
357.757465116279,109,3.85973458867304,-0.982080986936027,-1.2990595847932,-0.327935929828498,-0.907654143914574,0.372104274774089,-0.262627989023076
358.759586867305,109.838708618328,3.75254764618333,-1.44977287825977,-0.319754869083671,-0.233794184682001,-0.718115905992535,-0.478905554764062,-0.249379797575328
359.761708618331,110,3.69028920601917,-0.148441759493239,-0.304565710549855,-0.0964894679956864,-1.32676465002105,-0.26615939119951,-0.11178328029896
360.763830369357,110.84295212038,3.6420470649248,-1.91279718877558,0.583970779754296,-1.47839629890258,-1.33573668946894,0.450520158689741,-0.272834889189419
361.765952120382,111,3.59380492383042,-1.5045275900642,0.067336533487371,-0.636048629041165,-1.10971143410794,0.725713954050899,-0.334316977803176
362.76807387141,111,3.39133496032136,-1.24391282170541,-0.103576079361584,-0.64011564787956,-1.09344516119471,0.20247046324667,-0.38553486031463
363.770195622435,111.849317373459,3.14242294919284,-1.09807967681148,-0.0941843147535629,-0.541838015117827,-0.926865358412677,0.352154612301106,-0.157435435568387
364.772317373461,112.851439124484,3.04503382496581,-1.20010796716182,-0.0908349087404862,-0.357102414278799,-0.993256397258086,0.292336721479324,-0.330659760827813
365.774439124487,113.85356087551,2.99219194503422,-1.16221408173068,-0.148023129975809,-0.155754931795188,-1.04848595676997,0.641752813280669,-0.162848113455449
366.776560875513,114.855682626536,2.32625429909772,-1.33111609028666,0.2053226714089,-0.339813616199915,-1.09631788269563,0.384942301262222,-0.240272010039636
367.778682626538,116.715608755123,3.28096807496434,-1.56744520109434,0.190243648727694,-0.171279730617766,-1.06292821235406,0.452775269662433,-0.196340601704655
368.780804377566,117.859926128589,4.74491763495289,-1.85007369175577,0.413067363626509,-0.256309485815598,-1.25978812038484,1.00631423900653,-0.166101292550403
369.782926128591,119.724095759229,5.13921198228456,-1.89156135100926,0.53609524941285,-0.0217424360190847,-1.10667828146471,1.24091813987007,-0.236947987631146
370.785047879617,120.86416963064,5.23773558223666,-1.96306141073892,0.78470854403635,-0.471040747607649,-1.30081166620072,1.28257836936922,-0.0475511928782578
371.787169630643,122.732582763332,5.67287617064277,-1.97705046073873,1.30787553405992,-0.3847041286179,-1.3971939743346,1.12732266144111,-0.444598494291285
372.789291381669,123.868413132692,6.1987846549723,-1.92074927656208,0.703534028540607,-1.61526513375003,-1.59429371612357,0.434169744683672,-0.449184106936724
373.791413132694,124,5.76248448069832,-1.78196984884335,0.972921186042464,-0.860836648843415,-1.40283320466307,0.365193767402926,-0.434509359533411
374.793534883722,124.872656634745,5.07326021460288,-1.37634811551515,0.803343412969886,-0.718026072991044,-1.92693872686626,-0.716809648412581,-0.469926024394033
375.795656634748,125,4.17998418188756,-0.591907772051593,1.00702770104643,-0.748394357189056,-1.88544164841687,-0.594308889431972,0.104437191911401
376.797778385773,125.876900136796,3.23444222492477,-0.39098549226068,0.563698138122289,-0.257742835198896,-1.61096032010473,-0.395073873594849,0.224319692751785
377.799900136799,126,4.34049230756449,-0.0456536132304197,0.768751875557849,-0.140264944716978,-1.36016906703135,-0.514705396306518,0.120400957592328
378.802021887825,126,5.95840284276921,-0.165632252240563,0.450081011762562,-0.0467480130828772,-1.47781240356998,-0.480420172371945,0.233271644603789
379.80414363885,126.883265389873,6.12098822393998,-0.231979370648281,0.363666749760224,-0.0108100604689209,-1.63878299356052,-0.568484358510751,0.157522269793188
380.806265389878,127,5.93004895610795,-0.095528637777718,0.564324934994035,-0.122983604368666,-1.46449487688514,-0.549924564979247,0.231264233241171
381.808387140904,127,5.90185582123119,-0.342827627932455,0.633836430798794,0.14253651494084,-1.27867431185332,-0.54456455850605,0.21336520259442
382.810508891929,127,5.91213759039672,-0.160925592866623,0.437962110800909,-0.120143905062161,-1.11564212991087,-0.589953681550885,0.0934358754715855
383.812630642955,127,5.55591521641598,-0.439498590686942,0.492535091177428,-0.100327876701932,-0.839311653767543,-0.527069857380743,0.071744933325414
384.814752393981,126.106125854996,5.11540754770886,-0.589475870893324,0.241911144040622,-0.0456144517773355,-0.718243328841336,-0.634704055531091,-0.185765437040403
385.816874145006,126,4.63047344662148,-0.322848744101709,0.326006259745469,-0.116527762140341,-0.633261586640867,-0.880513911308998,-0.174994355630315
386.818995896032,125.101882352945,4.13560568352997,-1.12920094123564,0.124691623227166,-0.176381160570929,-0.624509635294318,-0.808619094118538,-0.130230909413342
387.82111764706,125,3.64073792043756,-1.5899615930227,0.0119961893969341,-0.225860664434974,-0.517366665798959,-0.77704648142983,-0.127717462643122
388.823239398085,125,4.13630766308488,-1.08534550758135,0.176369962199246,-0.161774708966389,-0.325477988538346,-1.15811391914817,-0.271203343573767
389.825361149111,125,4.84399101183297,-1.26862964164797,0.173094965244899,-0.13747288179519,-0.294525265049026,-0.706408247911256,0.0207304013519569
390.827482900137,125,4.96971499383721,-1.97346848838221,-0.32728075117867,-0.187348465119279,-0.233206313949479,-0.404400005097042,0.197614925940968
391.829604651162,125.908726402185,4.97441995545827,-1.98391740902871,-1.01712506103819,-0.217870272129825,-0.46316404829222,-0.283332436337437,0.184906539902863
392.831726402188,126.910848153211,4.36703173147822,-1.79477306429508,-2.13620845690843,-1.15585479069781,-1.25316075376185,0.719411022435516,-0.137145758605123
393.833848153216,127,3.63612087074295,-1.03761530673233,-2.12479642508196,-0.569387415583357,-1.17497131629496,1.60360180677846,-0.59768296137873
394.835969904241,127.915091655264,2.90521001000901,-1.25359921067009,-2.15594145417237,-0.658306846999807,-1.57757072741879,1.01536114292326,0.406383504071553
395.838091655267,128,4.47340310002707,-1.67858167919338,-0.562682924989262,0.22184678877332,-1.53640745297138,1.2896017065505,-0.384858612839575
396.840213406293,128,5.11541559246221,-1.40435297879562,-0.309368764653468,-0.141707043222909,-1.09691161204814,-2.01821964873702,-0.471218673309077
397.842335157318,128,5.49769497682599,-1.9545388727804,1.46332123673502,0.813627527593501,-1.1851625499033,-0.826023491861402,-0.48173079433421
398.844456908344,128,5.76233802357704,-0.912810635185089,-0.374838705564404,-1.01281545215517,-0.984541550268886,-0.264148430023268,-0.764438521515617
399.846578659372,128,6.00536758002748,-1.02809826377538,-0.566477099272843,-0.506498229339356,-1.06240596855679,-0.258138258707404,-0.15676321310522
400.848700410397,127.07217783858,6.33946914063619,-1.07074300045568,-0.0358532224135818,-0.233483091541548,-1.02228289192277,-0.3626943433875,-0.0262676718296809
401.850822161423,127,6.68976580931597,-1.01724534472885,0.0425829406388837,-0.170597153025125,-0.982354742973732,-0.0962963769050709,-0.139148699994033
402.852943912449,127,6.01314999280471,-0.975385902322412,-0.108992704192805,-0.510855803139692,-0.862223837198031,-0.0216450415844319,-0.252607982456733
403.855065663474,127,5.15992349154641,-0.989674925808254,-0.00706411560576216,-0.676961905658067,-0.920695367771106,-0.0705175441618945,-0.284887909329884
404.8571874145,127,5.77036688501969,-1.01654101324325,-0.135521572074127,-0.279815527057056,-0.921258542887155,0.0785289992035174,-0.139695951013842
405.859309165528,126.061569083449,6.62406438350252,-1.12669290526578,-0.148937174162926,-0.294631696164348,-0.856792930081757,0.0874028884944598,-0.0928542136486392
406.861430916553,126,5.99508944714752,-0.92982761299695,-0.106217064552574,-0.482131848881775,-1.08895005199173,0.197525622841826,-0.228748586603336
407.863552667579,126,5.12819901581399,-1.41469036823165,0.0552685900121088,-0.430538601077221,-1.21263486336933,0.502669114529311,-0.0564864018079675
408.865674418605,126,5.14810081226397,-1.72148854966697,0.0943443734876834,-0.26928209136896,-1.23008591135275,0.689489995681927,-0.10422614043354
409.86779616963,126.946917920654,5.30526857708608,-1.97685549274969,0.851523019256717,-0.403672267226761,-1.2238067212722,1.37551163406305,-0.243298907387131
410.869917920656,127,5.8494519083989,-1.97713869699034,1.30020378587232,-0.388900438096796,-1.19483179549629,1.44196566347554,-0.247969662807449
411.872039671682,126.048838577295,6.45136631693497,-1.97609406908347,1.30430788282121,-0.428395799937749,-1.64691561525152,-0.0238550446794059,-0.381190151299373
412.874161422709,125.046716826268,7.05328072547214,-1.36599504240632,0.430921218057093,-0.390681426947103,-1.8515739430894,-0.640243656339364,-0.721888655914418
413.876283173735,125,5.40473489284539,0.206877897810417,-0.866219727233729,-0.183634733606025,-1.92219800819272,-0.749059015399237,-0.347155367255264
414.878404924761,125,3.43922840707989,-0.5289068113686,0.869348154611213,-0.208932517999034,-2.01738003067769,-0.865369363517889,-0.57110269388628
415.880526675786,125,3.56995014960305,-0.0745478718801308,0.531227371418743,-0.0212976930675198,-1.7884895492526,-0.362285265523941,0.306997065253965
416.882648426812,125,3.98441267400101,-0.3811609586942,0.22450530724835,-0.156202791642995,-1.26425324486631,-0.456131980563001,0.0839364966842119
417.88477017784,125,4.14470970942553,-0.577806745734349,0.316982721466744,-0.0333980017787128,-0.816654790928241,-0.573872598013817,-0.0601071342744456
418.886891928865,125,4.27198418241455,-0.626956682259471,0.201133244837945,0.124704680983238,-0.639540250328557,-0.603899504216737,0.00260102481007217
419.889013679891,124.031864569086,4.50031786894666,-0.549862068473579,0.283334579803695,-0.0426563335699955,-0.3704504872146,-0.768502203505299,-0.0876874166373801
420.891135430917,124,4.74123795911075,-0.954406499659488,0.0290972162784767,-0.208729616450369,-0.50894345965416,-0.787311132692467,-0.227857632839821
421.893257181942,123.027621067034,4.89563161378925,-1.369768120105,0.132598956845952,-0.0798507964924027,-0.288374819931306,-0.797409788290887,0.232945960883631
422.895378932968,122.025499316009,5.03970999834006,-1.67671741178915,0.268291541983938,0.0719642578353483,-0.329008316273011,-0.831907167557003,-0.0189546290932355
423.897500683994,122,5.18378838289086,-1.23754511217774,0.102848289259601,-0.282758741313172,-0.290406343961039,-1.02291549869114,0.0582478009284777
424.899622435021,122,5.21987087790699,-1.17168976746557,0.0224514925684092,-0.292375981385479,-0.356933139527527,-1.09197916279208,-0.0630787479058294
425.901744186047,122,5.24393182114911,-1.20299782149047,0.125522556432512,-0.164531476062415,-0.33730548905786,-0.907535270862718,0.00735882078812866
426.903865937073,122,5.38645971448698,-1.347127010957,0.145314355887428,-0.182058508728199,-0.362547879340298,-0.861187563884764,-0.0245330755697608
427.905987688098,122,5.54155809789323,-1.33534284404951,0.146343452716086,-0.122091201094313,-0.42264778238681,-0.904591315390149,-0.0597894100413389
428.908109439124,122.987231190147,5.33255945408363,-0.964558823512449,0.13274267338201,-0.277256005747973,-0.375181634177283,-0.903026844621408,-0.0874714858914003
429.91023119015,123.989352941173,5.08680412647085,-1.1785068752686,-0.0222601149880557,-0.117406872229304,-0.419837933330842,-0.748529101962041,0.00239630292964491
430.912352941177,123.0085253078,5.42687271761646,-1.87163333958126,0.189298267317803,0.0415968801287883,-0.276694202687545,-0.732675445084518,0.0332621463763513
431.914474692203,122.006403556774,5.82308911023263,-1.88475385496983,-0.187748088032329,-0.223657846338835,-0.189888968335005,-0.0889323364534507,0.119763041247493
432.916596443229,121.004281805748,6.21930550284879,-1.98470243593251,-1.32846909804253,-0.550536528315724,-0.240051879894119,-0.351006982821641,0.103089480545403
433.918718194254,121,6.61552189546495,-1.73321902523065,-0.482065224923011,-0.91378195339614,-0.916715333323255,0.635434823433249,-0.140000528391636
434.92083994528,121,5.89857726020919,-1.94720169908485,-2.16075324213453,-0.881035070347072,-0.73057197968152,0.504798038509009,-0.448847229042473
435.922961696306,121,5.08615966195704,-1.83706414507525,-2.12768016073437,-1.2072771567528,-1.50020819883821,1.29861397406947,-0.499823251527134
436.925083447333,121,4.27374206370341,-1.56097358815592,-2.13734233722511,-0.989888208056519,-1.19284501935358,1.30850483245661,-0.708709341580645
437.927205198359,121,3.46132446545125,-1.35146872503228,-2.15520311627902,-0.50815408247551,-1.03704145603344,0.726657026503397,-0.550505419350956
438.929326949385,121.008448700408,3.68180973626537,-1.61971468872391,-2.12257570923857,-0.875334421495709,-1.30094863788688,1.22151261873148,-0.493344472284412
439.93144870041,122,3.98066582526209,-1.59990120076454,-0.623971988033572,0.0235434394071434,-0.844252071968696,0.34555038645904,-0.295001166560176
440.933570451436,122,4.27952191425881,-1.57810278389275,-0.310432986980633,0.355123635451376,-1.02987370268982,0.185506808934426,-0.260869288189935
441.935692202462,122,4.56416386976717,-1.65904434881919,-1.15445383425862,-0.447071626792134,-1.19620261459265,0.296044436105654,0.382447600727343
442.937813953489,122,4.84783113342469,-1.37335356853937,-0.804618714564999,-1.59232447643427,-1.35034829166096,-0.250215545289051,-0.248804362529764
443.939935704515,122,5.1314983970817,-1.42085828898676,-0.576591336214893,-0.439373823405204,-0.645339526463979,-0.677074895399762,-0.741775041453815
444.942057455541,122,6.16500760848152,-1.1046182717728,-0.465227135332038,-0.513749172322121,-1.07692519973908,-0.832036476047177,-0.851636609289926
445.944179206566,122,6.26886383574554,-1.09948048910538,-0.192932474802866,-0.351296510944634,-0.64453704737842,-0.760251384099509,-0.665291122939831
446.946300957592,122,6.31516687125168,-1.11320811947035,-0.405247698401268,-0.48760112102179,-1.03852542311826,-0.39659505623945,-0.45126493885697
447.948422708618,122.027544459641,6.25347855069773,-1.15422920178136,0.11420831427282,-0.00174827004549202,-1.20697122120947,-0.405573056720668,-0.0795347861828274
448.950544459643,123,6.18593053406985,-1.21308754868768,-0.473254755100499,-0.387871713061417,-0.974349647262059,-0.281425610998802,-0.182612583122284
449.952666210671,123.031787961694,5.42456197537593,-0.968196438752592,-0.294483125466599,-0.417328146355643,-0.86399132921773,-0.147738921830656,-0.164009930717102
450.954787961697,124,4.62879713532145,-0.993891755687173,-0.0864340077806191,-0.47594307914186,-0.91685633977369,0.0700179518571643,-0.261660012082271
451.956909712722,124,3.49804740013709,-1.02088227258044,-0.124338941997755,-0.349225703389131,-0.931988554317697,0.186373241450099,-0.287562917232181
452.959031463748,124,2.35224644305809,-1.11092495485403,0.107140183410531,-0.332474851709651,-1.02411230641421,0.163068246650359,-0.086852019319404
453.961153214774,124,5.26501671575664,-1.30411940743949,0.0404927761374903,-0.305608558104997,-1.17180058618073,0.396840379202544,-0.208682196220017
454.963274965799,123.957603283177,5.46765774227076,-1.50707939839989,0.12763329582109,-0.786901319930414,-1.2648148796182,0.590794757586663,-0.250164361427611
455.965396716827,123,5.56097531972644,-1.66015673393247,0.127201495413226,-0.436041373554494,-1.24585139466486,0.738869125991335,-0.3377441817646
456.967518467853,123,6.16927366562933,-1.89378331053267,0.390053299314903,-0.552601632776022,-1.17185284097314,1.10939563196083,-0.535523377410516
457.969640218878,123.048761969902,6.79482311566335,-1.97462258696508,0.693851457203123,-0.514539732044323,-1.19302620571145,1.32030355997187,-0.321160029517636
458.971761969904,124,6.66924526825589,-1.97664170930222,0.969816684852676,-0.484632233722724,-1.19707761241041,1.34464296664406,-0.834095815507095
459.97388372093,124,6.52188827537631,-1.97771113816699,1.04779809648093,-0.480914358955003,-1.1437433809857,1.32037633340725,-0.419798032488276
460.976005471955,124,6.44635679469228,-1.76449452461996,0.258963214085432,-0.379314871403128,-1.24541035567887,0.858599555384035,-0.245610937069209
461.978127222983,123.942751025994,6.37258727219331,-1.49602629166121,0.21876952265439,-0.181822468354404,-1.25534347811131,0.605342740087583,-0.102635871762061
462.980248974009,123,6.29881774969447,-1.2565285093444,0.0281517251570448,-0.157021379238588,-1.28207421340459,0.347995506159793,-0.165018979479915
463.982370725034,122.938507523942,5.87886457455547,-1.15398950684214,0.146249702001608,-0.367754925856456,-1.08571519254309,0.144412975658301,-0.154022072336551
464.98449247606,122,5.45271229993179,-1.01456274145008,-0.095225728372087,-0.351721809575911,-0.940368928811865,0.25475172935038,-0.385193711674869
465.986614227086,122,5.52636935803004,-0.998036337123642,-0.0288966367253103,-0.621545732769898,-0.945656482903385,0.133385394437179,-0.366138442024378
466.988735978111,122,5.60679296895569,-0.982988383446809,0.0879598752614002,-0.281860988994739,-0.952507668398765,-0.0982519983163914,-0.414990873741527
467.990857729139,122,5.68721657988148,-0.866193299036039,-0.142943122241789,-0.421458431061292,-0.954214900157019,-0.0377166454550327,-0.232214610455384
468.992979480165,122,5.69084491179207,-1.04281085045087,0.015516482757061,-0.243402193971336,-1.02263988766629,-0.21845954965698,0.0456060155268747
469.99510123119,122,5.69393144678523,-1.17319131709879,-0.0226728889639125,-0.311744547436191,-1.19269464258462,-0.245038946266486,0.0824422907446477
470.997222982216,122,5.66823185673736,-1.01089845034295,-0.210833064557952,-0.601210391518032,-1.09022982024618,-0.370583093296863,-0.635182862927527
471.999344733242,122,5.64263547523933,-0.971721235223618,-0.459192047741895,-1.17663810998514,-1.137378539158,0.743142594962699,0.0616321619988579
473.001466484267,121.919411764709,5.74204595294108,-1.37150264707296,-0.606504127095491,-0.72570464355201,-1.16640827450031,-1.99192724695373,-0.390796603935894
474.003588235295,121,5.84145643064301,-1.70604154603701,-0.322832152507746,0.0682825365854925,-1.2063786104825,0.994763189438855,-0.387067605466864
475.005709986321,121,5.93742623033507,-1.75095314927334,0.685748477013466,0.919884606887694,-0.775815141814208,1.06378130908165,-0.357074550384643
476.007831737346,121,5.59657956976746,-1.35175441856392,-2.15650889534876,-1.11561502022388,-1.19266475581504,1.34479808138643,-0.762151831394099
477.009953488372,121,5.25749251308488,-1.93573322568142,-1.90709455269106,-0.610705354606371,-1.3903511108153,1.19329824225064,-0.479761096947048
478.012075239398,121,5.06267503407673,-1.8679551644305,-0.712415994575183,-1.05871099341562,-0.396363691485472,-0.376203880946227,-0.123270963069789
479.014196990423,121,4.87817119004975,-1.65855087005614,-0.0033383198510779,-0.314061011983233,-0.422275400549436,-0.880570137351347,-0.0781700929845781
480.016318741449,121,5.31670634911027,-0.507572824026138,0.173965401544325,-0.0699538688419843,-0.815966393789494,-0.513697248490116,-0.00166528048865519
481.018440492477,121,5.75524150817159,-0.536528961234995,0.284676623118857,-0.0983094062936422,-0.877462380289312,-0.523187121754432,0.00792777399330391
482.020562243502,121,6.17364401718194,-0.263576175946233,0.397710143018411,-0.0356210150799052,-1.25232066725025,-0.47444537445629,0.181577239130178
483.022683994528,121,5.72276939896046,-0.200225662790224,0.558184899498895,-0.367980543458408,-1.48529758931189,-0.506633228573484,0.410382424899816
484.024805745554,121,5.30135898213369,-1.3471170956218,-0.236618321812447,-0.179153710076366,-1.68071689266472,-0.619458530207445,0.288595977084398
485.026927496579,121,5.94701099449328,-1.16183226703785,0.040042064295497,-1.03040999034585,-1.93058691700389,-0.79607768018953,-0.404640222521475
486.029049247605,121,6.56148499474734,-1.76340226572758,1.40095899419636,-0.934926884744561,-1.68301635946062,-0.230446110690289,-0.243448766571002
487.031170998633,121,6.2047897786866,-1.97664872594618,1.18162067122112,-0.856533999822455,-1.64327248422678,-0.593229320619438,-0.312279336538317
488.033292749658,121,5.85676969871408,-1.75276960431482,0.241468842222978,-0.398207473015813,-1.5119440030813,0.888009888244855,-0.033575762294011
489.035414500684,121,5.74555422678525,-1.97482604537155,0.711831053496925,-1.06979258200263,-1.16885119261273,0.774010983474922,-0.155991471709983
490.03753625171,121.116658002733,5.63930724163246,-1.26519484240881,0.0825514310878944,-0.29940012626567,-1.27844684815577,0.887682526719817,-0.252008457006381
491.039658002735,122,5.65364092307796,-1.87286022230251,0.230351333792254,-0.44808027770234,-1.23408180574149,0.658085592334609,-0.221273883722247
492.041779753761,122,5.66797460452347,-1.77097498426649,0.156792038304364,-0.195364745185747,-1.26253519699143,0.743116637937865,-0.28638470106058
493.043901504789,122.123023255812,5.67686634279065,-1.44041746511648,-0.0705931162810553,-0.0865153567439911,-1.17517244184805,0.321963142627509,-0.111028300994147
494.046023255814,123,5.57270580798904,-1.31235999794959,0.0732390115207185,-0.388631533857674,-1.11466239979299,0.360821715694309,-0.00540230032560072
495.04814500684,123,5.46453876125174,-1.32320718741554,-0.0320844622436067,-0.0818500832250036,-1.18774998632904,0.479701002201904,0.0252082289291728
496.050266757866,123,5.28050411228463,-1.18786990492719,0.0949697013130973,-0.379773308302981,-1.05841269493857,0.351883103283243,-0.154331668262645
497.052388508891,122.868489740085,5.11461320333094,-1.21278779297765,0.0346900959596738,-0.476031934793301,-1.08360395349035,0.266282520392234,-0.172730953160986
498.054510259917,122,5.26413477919273,-1.22746375671288,-0.048012448174644,-0.329402130755458,-1.04415669174573,0.368712239329212,-0.261462951671313
499.056632010945,122,5.38696775244856,-1.18702775103561,0.0334111762249869,-0.333671913546722,-1.05586113653742,0.202616278542034,-0.166963216413969
500.05875376197,122,5.08128053351568,-0.960764737742115,0.0040855099659997,-0.685369085435602,-0.968239805472074,0.01137718724878,-0.385046787952705
501.060875512996,122.139997264019,4.7755933145828,-1.02830953853514,0.00442125051291841,-0.603985072485683,-0.916040717511346,0.0513027406363024,-0.189366401495303
502.062997264022,123,4.3279883190161,-1.03470339010509,-0.00849946084226141,-0.349126492623124,-0.952085951847179,0.0515044416826037,-0.142581319973984
503.065119015047,123.144240766071,2.14483541772765,-0.959233319699851,0.0266475304954653,-0.630654304778582,-0.992678351854738,0.00995798133427046,-0.124286122555116
504.067240766073,124,4.22335618396507,-1.21330725485352,-0.325897898223086,-0.395685590071374,-0.828100211405235,-0.00750092211728715,-0.27953470125194
505.069362517101,124,6.14612381002047,-1.05119479069001,-0.0944309601064172,-0.202076553953599,-0.846338112630482,-0.0556958734195563,-0.258417028426714
506.071484268126,124,6.0411766096443,-0.962630831737583,-0.241793255810607,-0.309717602597475,-0.941915216304727,-0.209454226912597,0.0330082739994623
507.073606019152,123.847272229825,5.9473122946466,-1.48342495594678,-0.162781540516233,-0.00507041201401909,-0.857575270913037,-0.104741373900169,-0.0724013188083999
508.075727770178,123,5.98902728273596,-1.09883589302321,-0.00507696220595366,-0.277529981367707,-1.15464589395743,-0.0161600923228566,0.0843676264074047
509.077849521203,123,6.03074227082533,-1.10338494527861,-0.0076890214240812,-0.291498655200694,-1.07925493705981,-0.420726568949522,-0.336794427756446
510.079971272229,123,6.05548931511644,-1.08903080790371,-0.239081434911011,-0.594976268386852,-1.12079199418414,-0.413965669465058,-0.0992617112001865
511.082093023255,123,5.89007408828338,-1.01043886910656,-0.575471518015695,-0.545568561352993,-1.29180053351533,-0.60720227359592,-0.184208175244385
512.084214774282,123,5.7248617522845,-1.11646886456999,-0.288639658905055,-0.511199767778367,-1.11933017960834,-1.14195542682641,-0.866235608767914
513.086336525308,123,5.56180151156635,-1.13047850160356,-0.0172612295958704,-0.123907307662735,-1.56665319288285,-0.807912528093715,-0.100717051325507
514.088458276334,123.167580027357,5.39003245411773,-0.890844656546273,1.81571505263778,0.694716103719514,-1.4115152604126,0.0918583823677092,0.654565292591116
515.090580027359,124,5.13062321764722,-1.21437168263316,-2.10334440674186,-0.708540409947102,-1.02996764542858,1.12239733205056,-0.266825349577668
516.092701778385,123.828176470592,4.89762375647057,-1.40280235305226,-2.1563338235292,-0.75274938238211,-0.777330838156515,0.0898531955773648,0.130862554832341
517.094823529411,123,4.91732045948698,-1.98494364432282,-1.58647536602869,-1.34519563178004,-1.40083173773599,1.61868752607393,-1.32438919461993
518.096945280438,123,4.89927873264922,-1.98351051436382,-1.87974105680012,-0.505633883048922,-1.4694956347233,1.17958298135335,-0.459923714873425
519.099067031464,123,4.53722884603282,-1.9287664405,-0.623462471651633,-0.640216673860064,-0.341221738967306,-0.723097288726091,0.111185987774904
520.10118878249,123.180310533513,4.17517895941642,-1.02181404755776,0.00523519235899184,-0.115305863764258,-0.562688037083837,-0.831075415672907,-0.115647952077018
521.103310533515,124.182432284539,3.8928341227084,-1.07122246239027,0.046543245005417,-0.0834487833118123,-0.561364016435472,-0.826475281797226,-0.158915955677627
522.105432284541,125,4.28837157783824,-1.16373892952665,0.00477457181865755,-0.110651765615783,-0.696412441842827,-0.77098782658777,-0.1395924700929
523.107554035567,125,4.68390903296808,-0.493994063731501,0.404467087295357,-0.0462775750298995,-0.816835176917263,-0.70081143317208,-0.354041833073933
524.109675786594,125.188797537618,5.07614007592353,-0.216739673667795,0.385123031266155,-0.11300307933903,-0.851303722066129,-0.583970090105682,0.0753213736608518
525.11179753762,126,5.44203978026679,-0.230736392608633,0.243949094665788,-0.158143952461528,-1.38754493296357,-0.365670951573323,0.172619521474436
526.113919288646,126,5.74234264529416,-0.230576310851348,1.01541850480242,-0.0608670336257249,-1.63966261091014,-0.504922222011712,0.201825487371241
527.116041039671,126,5.5417529450001,-0.196228349343733,0.756928107560271,-0.237843840349158,-1.56923856279968,-0.564820359539105,0.176030553845544
528.118162790697,126,5.3556545248701,-0.818398099233761,0.974143592751231,-0.303578694740301,-1.64510789410799,-0.642272409362492,-0.0318657846182951
529.120284541723,126,5.27579544253087,-0.034004336505699,0.81890026667026,-0.101358803521459,-1.84605886047088,-0.745685052267434,-0.0460662305174589
530.12240629275,125.798471956226,5.21791493727774,-1.97381070930172,0.428055188258613,-0.685398004576123,-1.974880432561,-0.789227685936508,-0.33007685025491
531.124528043776,125,5.31492533338579,-1.97649322845397,0.326252552695172,-0.873739021923654,-1.20382789603094,1.20262765801065,-0.322992549385832
532.126649794802,125,5.35043701463754,-1.97590276499906,1.07604541639885,-0.472139385439226,-1.19368017145899,1.38717091380406,-0.328138545889172
533.128771545827,124.792106703149,4.96885410489073,-1.9762477578593,0.895630239277226,-0.443984455821919,-1.21118281297404,1.17672871894341,-0.543275775412821
534.130893296853,124,4.68202712480139,-1.88946469698761,0.392317416316923,-0.827206320798501,-1.25135301034733,0.901171147114998,-0.281026969545396
535.133015047879,124,5.01432568683276,-1.71769746921033,0.143569890225598,-0.294779077276159,-1.23598804104816,0.638903364010155,-0.171125212313257
536.135136798905,124.214258549928,5.31596732297295,-1.41381123529409,0.0493752133789422,-0.418493294528025,-1.22410620155594,0.435629871188594,-0.12002127234711
537.137258549932,125,5.42444032171001,-1.3017173497598,0.0458561201261365,-0.309190812119895,-1.15026282900179,0.314450057453431,-0.179588066758517
538.139380300958,125,5.53291332044687,-1.22177082421333,0.182941837688627,-0.28491866115381,-1.08333397468426,0.359602814410543,-0.0918617648544115
539.141502051983,125.220623803007,5.63300754588917,-1.09489868127869,-0.00723176416630823,-0.272303985684743,-1.00345321743474,0.379365639028374,-0.350774045036451
540.143623803009,125.777254445968,5.68301843187411,-1.15839033721794,0.0237958738206435,-0.481099876950925,-0.979533071410597,0.0806760077432204,-0.196261959286842
541.145745554035,125,5.680432917449,-1.0436560396754,-0.0771860919148139,-0.369143197022313,-0.935684388054557,0.167491419033468,-0.145201133596452
542.147867305062,124.773010943914,5.37398909659354,-1.02535160533406,0.0480073448509478,-0.2123415630634,-0.91262061287944,0.119560210661419,-0.239929941278469
543.149989056088,124,5.09329915649108,-0.936868168002298,-0.0238406242516146,-0.594696002945368,-0.988656825857294,-0.184148727480962,-0.195609631033803
544.152110807114,123.768767441863,4.95652456930233,-0.96820024999352,-0.00664399739593667,-0.303684135003793,-0.960086444179163,-0.227942895350628,-0.419183818597553
545.154232558139,123,4.87796460027352,-0.944200004288241,0.0110186899608588,-0.382950942908117,-0.950535694483954,-0.1774294988021,-0.276447317742838
546.156354309165,123.235476060188,5.11430499403542,-0.952750911422136,0.0162905352238465,-0.589373239059,-0.897262778214972,-0.134948267267386,-0.134276733132415
547.158476060191,124,5.35064538779732,-0.953231411194474,0.070892089705946,-0.712617061014593,-0.880570457869456,-0.0844594062396717,-0.138777340912923
548.160597811217,124,5.4682156882815,-1.14369893479768,0.113110711042277,-0.0967737055044332,-1.06842820468979,-0.248244587233916,0.0208246156797868
549.162719562244,124,4.97310073515717,-0.994616589328309,-0.00259755111035321,-0.363718757046853,-0.897032394803155,-0.176619495136748,-0.28526219092056
550.16484131327,124.243963064293,4.47798578203374,-1.08460703829671,0.0922124679717745,-0.0154325068424393,-0.896810447139343,-0.0821133389035332,0.0316190292674637
551.166963064295,124.753915184681,4.07456665149109,-0.953770425444652,-0.687715626539736,-0.536709887824878,-1.0761498655963,-0.36363215525226,-0.0779217512942322
552.169084815321,124,4.12290900476057,-1.13698510458243,-0.073742494911539,-0.407064124020214,-1.17445185607056,-0.370394531416563,-0.360159155052932
553.171206566347,124,4.17125135803005,-1.4905250738694,-0.646343116700303,-1.11140520667677,-1.15330500375901,-0.365832112033998,-0.263548284672886
554.173328317373,124,4.21959371129953,-1.38616528273743,-0.398443264302673,-1.20079008303954,-1.18500152941508,-0.622320417509891,-0.374816256232115
555.1754500684,124,4.30407414946999,-1.01201364358382,-0.539378680677485,-0.528778941408404,-1.24535054720735,-0.390791529134738,-0.292230796452046
556.177571819426,124,4.55636080559509,-1.08012650593225,-0.102107978611015,-0.265235932640999,-1.05127774511963,-0.586293801131047,-0.805102239654449
557.179693570451,124,4.80864746172019,-1.05638056812383,-0.467819274366996,-0.778873505363297,-1.26747710713738,-0.559488755118231,-0.531617206722598
558.181815321477,124.2609370725,5.06093411784528,-1.407748208919,-0.901032053979672,-0.988827260361649,-0.947903107178388,-0.584025448619209,-1.03782112134861
559.183937072503,125,5.30999342862726,-1.07248224314097,-0.611520776477051,-0.834368964657477,-0.735851964721063,-0.435088207027928,-0.701306623533354
560.186058823529,125,5.54489744787935,-1.04221050934758,-0.659970890178292,-1.17411874247736,-0.963298492803484,-1.50156964051193,-0.292393286471342
561.188180574556,125,5.77980146713188,-0.956573883732016,-0.0659612752222408,-0.647168339562045,-0.923836976702598,-0.842792557910686,-0.574421325660761
562.190302325582,125.269424076605,5.87861035113538,-1.09785055009352,-0.0638414008236861,-1.28623852100683,-0.830241230207167,-2.02278543815518,-0.461591705856214
563.192424076607,126,5.40474705994537,-1.12134027314427,0.0638004682571841,-0.58354454997462,-0.895838912452079,-1.18772194992111,-0.837827716828056
564.194545827633,125.726332421344,5.05798478037383,-1.43687205678752,-0.508995763882653,-0.997279865631147,-1.09700203639245,-1.96427893360702,-0.357240321882622
565.196667578659,125,5.23176605362504,-1.30291948210746,-0.472689622348264,-0.494291310381343,-1.24313640769635,-0.177465538563546,0.00419446118944988
566.198789329685,124.722088919292,5.40554732687624,-1.97608562237495,-2.15170167812935,-0.832281009951002,-1.12957293754711,-1.58609708390096,-0.494528492760662
567.200911080712,124,5.54867402641588,-1.07274693416336,-0.4571412527902,-0.550245900911573,-1.43776265603282,0.33544127705038,-0.0287384805230315
568.203032831738,124,5.57115161729138,-1.41200354000648,-1.51154101881001,-1.03115683219671,-1.12084892070871,0.17803812464872,0.0113319485684719
569.205154582763,124,5.5687892123256,-1.74746069577327,-0.244340740475163,0.152703983634362,-1.53724092750489,0.798742141104631,0.614336481870963
570.207276333789,124.286398084812,5.47117253255818,-1.61032011617749,1.79496483994981,0.779246135079378,-1.31737273184799,0.457271791022067,0.852408953372888
571.209398084815,125,5.37355585279077,-1.81299474692733,0.541463181990915,0.160936978405246,-1.26625690560285,0.602304421055331,-0.117270902349372
572.211519835841,125,5.21672199797576,-1.51070110146784,1.24198611531771,0.757005577501921,-1.21253922577788,0.737861213922594,0.289102131871453
573.213641586866,125,4.84133721125904,-1.27585007659781,-2.15478721477415,-0.42799371217075,-1.35003206048448,0.821656359113968,-0.191143060712581
574.215763337894,125,4.60972680559969,-1.74143439737117,-0.63959789294632,0.129944959210048,-0.700355720625033,0.0860017784469734,0.0838025037732084
575.21788508892,125,4.89560541792063,-1.36980481258101,-2.03958375649965,-0.313069674695519,-0.849363587442138,0.314742894679972,-0.398558805735432
576.220006839945,125,5.18148403024157,-1.19692212491019,-2.15697,-0.643342638424226,-1.01971199499164,0.816493659040835,-0.440880827679913
577.222128590971,125,5.41878142222294,-1.76360496958747,-2.1578294018468,-0.866128093635635,-1.75177975739664,1.74520572600893,-0.932386775436231
578.224250341997,124.69662790698,5.48756204860459,-1.98377033720927,-1.27698699779625,-0.562995070843076,-0.825610511505694,0.497607561983943,0.190075577417047
579.226372093022,124,5.55634267498623,-1.98580703351575,-0.554785183522282,-0.619181214069544,-0.177152254462016,-0.259966063520541,0.142526484814883
580.22849384405,123.692384404927,5.62512330136801,-1.4489213476827,0.0514176039920917,-0.282588107592363,-0.469350869360379,-0.827276500286362,0.0703350419617647
581.230615595076,123,5.69390392774966,-0.794295750016856,0.189322851494849,0.0100513465220433,-0.752737483582195,-0.772756293889891,-0.193667049246037
582.232737346101,123,5.7626845541313,-0.327478972341829,0.415057053365187,-0.0818332089088131,-1.02048186859162,-0.614760334142979,0.325846963958292
583.234859097127,123,5.83146518051295,-0.264839639837969,0.867723008849955,-0.164858136343376,-1.46200166895019,-0.263337420653751,0.258249808619977
584.236980848153,123,5.9002458068946,-0.954211163586702,0.254927653856778,-0.612395794371611,-2.00722531986144,-0.721441962502138,-0.800360898808319
585.239102599178,123.318224350201,5.96902643327625,-1.73187716521877,0.564615303552157,-1.76958732866339,-1.74061995072558,-0.530597726223139,-0.0734589023682135
586.241224350206,124,6.03780705965802,-1.94728081908375,0.393381091144429,-0.286622189467098,-1.20924176160629,1.27503456949477,-0.376936287273215
587.243346101232,124,6.10658768603967,-1.97747878864579,1.31992941551025,-0.784795421417701,-1.36747298496285,1.27981567578093,-0.280471036614965
588.245467852257,124,6.17536831242132,-1.97710132968535,0.991943432233052,-0.51515932876087,-1.11917347557591,1.4482923142076,-0.2760486843172
589.247589603283,124,6.24414893880297,-1.80306069499045,0.278231378012547,-0.446316832670884,-1.29099217784803,0.747689388271013,-0.503603637792293
590.249711354309,124,6.31292956518462,-1.70654124418263,0.224263702286894,-0.463539508266694,-1.28103435773152,0.782599657240089,-0.288852150000616
591.251833105334,124,6.26331855382171,-1.59591903557877,0.110184587272169,-0.451776708608838,-1.27934299817643,0.649654670983326,-0.208670061913937
592.253954856362,124,5.86491837088905,-1.26185046993456,0.0284394655765998,-0.371375561048318,-1.20111665167205,0.263431841632736,-0.25061600463284
593.256076607388,124,5.46651818795711,-1.27649579005835,0.0376907304682776,-0.556246118028065,-1.13245534884051,0.417945286604066,-0.173034582073553
594.258198358413,124,5.24957587277695,-1.02752356908342,-0.052488065429543,-0.315197350313773,-1.14082013680267,0.211948626660416,-0.0870801250326816
595.260320109439,124,5.54971133720915,-1.11853728837635,0.0149430699283599,-0.61739644650032,-0.943884452091287,0.0639794330239785,-0.215690370234449
596.262441860465,124,5.7250212803467,-1.00238996699596,-0.0141622495989578,-0.681945338409024,-0.818200392954367,0.269189953148302,-0.244800982558635
597.26456361149,124,5.55233900061578,-1.01504022051787,0.064165575163995,-0.435604378390203,-0.995352137892265,0.077652796418591,-0.375103129973457
598.266685362516,124,5.37965672088487,-0.946964032143875,-0.300818371075039,-0.340489123671129,-0.973264016935149,-0.0825945132164559,-0.232908868987185
599.268807113544,124,5.36077849982905,-0.943842366893484,-0.23367242727421,-0.203728474972838,-0.938664214497911,0.000836532361707435,-0.252505158739296
600.270928864569,124,5.75699238714084,-0.942402065866761,-0.0549118395388179,-0.723575167089983,-0.89330452564044,-0.108379185994305,-0.290973293158054
601.273050615595,124,6.06090383165524,-1.0725312585364,-0.0342954979827123,-0.0599907229884637,-0.903987319539892,-0.0650880934483097,-0.325904964283192
602.275172366621,124,6.12097100941172,-1.16953824705569,-0.0915927266483822,-0.115980568821363,-0.841406628250428,-0.0187673040075964,-0.224900503863469
603.277294117646,124.35641586867,6.06726703084168,-1.04380708497163,0.0945116557885064,-0.454335216161822,-1.08290570123153,-0.184433217727225,0.001102783460006
604.279415868674,125,5.71929528462364,-1.11495974783404,0.0597255551211647,-0.124170307617823,-1.1715083755107,-0.274279183173699,-0.00024221505841189
605.2815376197,124.639340629277,5.41250095095756,-1.0457876454946,-0.346602649511336,-0.685907365482786,-0.92089950257436,-0.171263615068693,-0.765432686076929
606.283659370725,124,5.21000220872779,-1.0085624527241,-0.523092040718823,-0.962355230208824,-1.00262645444412,-1.82066639260145,-0.369662929823774
607.285781121751,124,5.0781500330962,-1.7255434494023,0.767113028095131,0.172684264177981,-1.29827308889441,-0.467834349551038,0.0434877058611683
608.287902872777,124,5.12155526653896,-1.47970494869639,-0.734355266283075,-0.628769978121058,-1.34702176283594,0.0352815095507419,-0.244516720462681
609.290024623802,124,5.16496049998172,-1.67682818062884,-1.449320098548,-0.45432450195787,-1.3295498588692,1.23148633362696,-0.0281804551309969
610.292146374828,124,5.18665070752398,-1.86474784309709,-1.26387249917964,-0.598850911881522,-1.50188166954894,-0.0192076465974789,1.0250524738809
611.294268125856,124,5.15610603655266,-1.61812632011931,0.0983036131541343,0.578052298504996,-1.13702233515768,0.31599198666225,0.0351984948710634
612.296389876881,124,5.09399674604652,-1.26967779069561,-0.79863502773457,-0.604034074346903,-1.0809059104492,0.231310857054011,-0.471650397634788
613.298511627907,124,4.9574877211218,-1.42425373734646,-2.15694494756043,-0.151802062927656,-0.983474471949667,0.721386367047778,-0.434781489540165
614.300633378933,124,4.80432565027372,-1.34385805886318,-2.15634359279534,-0.44895709516952,-1.12936290405443,1.16812610739271,-0.93779465361231
615.302755129958,124,4.61269491843383,-1.23878963065221,-2.15634238030083,-0.742655704236962,-1.8642498692308,1.11589851618471,-0.983243496769138
616.304876880984,124,4.42106418659394,-1.45944892613622,-2.15786261969894,-0.556557763415225,-0.690972129435238,1.43367817905264,-0.369543909179027
617.306998632012,124.386120383035,4.22943345475371,-1.74491585703978,-2.10543486867349,-1.5665369885061,-1.84558438846404,1.36342156438325,-0.793853403797883
618.309120383037,125.38824213406,4.01004459318742,-1.94368954126086,-2.11282650480378,-0.891135005064223,-1.46465139674187,1.02896635577831,-0.378764691596203
619.311242134063,126.390363885086,3.7290396329823,-1.80198702050504,0.0470200134904946,-0.213381535087865,-0.467248308952531,0.170779545108648,-0.146411507041373
620.313363885089,127,3.44803467277718,-1.52085276471354,-0.00568317129075947,-0.111679625446524,-0.442515580709046,-0.320709752320826,0.0266840575805131
621.315485636114,126.605392612862,3.37299333902156,-1.7117091928614,0.0784938016635554,-0.342425998615768,-0.357576032013425,-0.937775410689226,0.0295734915597917
622.31760738714,126,3.74184930253034,-1.48364862426211,0.111056652744766,-0.0902452484744903,-0.501382974363,-0.919622636407755,0.106407823945046
623.319729138168,126,4.16232317523046,-1.4056978801313,0.10330352020393,-0.0571048565329531,-0.414008645412698,-0.785418058549466,0.00701299753547676
624.321850889193,126,4.69189775496583,-1.21422283516502,-0.0794377140150014,-0.127438314979646,-0.607065900137713,-0.849963021527291,-0.104172440056001
625.323972640219,126,5.22147233470119,-0.385676263359532,0.273197695334735,-0.201497219348781,-0.890123488899582,-0.68374664488849,0.0271915039689172
626.326094391245,126,5.39429948994558,-0.201104580983775,0.438110529344613,-0.200657319559405,-1.26507605327563,-0.52315678410845,0.0297700872978624
627.32821614227,126,4.83463954504151,-0.156750518571096,0.564372126947308,0.022851938626696,-1.55792591791054,-0.285052674136058,0.335993504519831
628.330337893296,126,4.38348944114937,-0.110974908116969,0.700488964104854,-0.00427815142406038,-1.69861514021602,-0.304973607935089,0.219800575580433
629.332459644324,126,4.1509070039534,0.155832278991312,-0.467296918511852,-0.502403755808289,-1.88347264185488,-0.670741331161352,-0.927787559752329
630.334581395349,126,4.07164234445967,-1.89302151983718,0.298336064981303,-0.839965093435833,-1.169548374142,0.938298209661131,-0.19431698599507
631.336703146375,126,4.29537604659366,-1.97667222811218,1.09590113625182,-0.895458900276859,-1.36952561046304,1.01412528932951,-0.142932327707987
632.338824897401,126,4.51910974872766,-1.97511722571815,0.865155163024456,-0.321409343629534,-1.20562403489013,1.43025712292534,-0.59623537083841
633.340946648426,126,4.84592006681902,-1.96696110533582,0.489327189248435,-0.479110773278215,-1.17880790971396,1.49750887825585,-0.333999515526874
634.343068399452,126,5.37074625965744,-1.55882714363153,0.247921442567218,-0.259598463355732,-1.26277710190913,0.688519099039613,-0.242413723802855
635.345190150478,126,5.65124026634772,-1.66987107523501,0.195219525307038,-0.175007589184883,-1.22569201915351,0.473402304236468,-0.0263638970655948
636.347311901505,126,5.47107881794799,-1.52985596781178,0.103088332999781,-0.248716285212198,-1.11331718776068,0.362401691295239,-0.454992754470453
637.349433652531,126.428555403554,5.29091736954859,-1.59092194255735,0.134040845916337,-0.221114601008205,-1.07394210975147,0.337558534027829,-0.174058853884839
638.351555403557,127,5.03816191678539,-1.53125721101841,0.0438541938096424,-0.149807678777925,-1.18362258140906,0.874031560563778,-0.0597844476087827
639.353677154582,127,4.65230996837921,-1.55291350067635,0.0835481314176536,0.052104539571792,-1.2062081723665,0.817862564700871,-0.0880106900333416
640.355798905608,127,4.60243098194198,-1.29316670245522,-0.076553497710859,-0.132251984134684,-1.16086400375316,0.317562001640099,-0.192698837302587
641.357920656634,127,5.1572506787886,-1.22715471467073,-0.0243378374703085,-0.412903239418893,-1.21100462381718,0.484071902879806,-0.010323634079827
642.360042407661,127,5.50201516359781,-1.12493549179836,0.0320309405536424,-0.175,-1.03158325089435,0.284073857216299,-0.471427749421862
643.362164158687,126.55871409029,5.47560424484952,-1.25381349384254,0.0544530036368485,-0.149348768835095,-0.997650772804075,0.365036468347217,-0.193080640546234
644.364285909713,126,5.34452531373473,-1.11228356181817,0.03252071606629,-0.345627682127047,-1.06585571805672,0.320146576629335,-0.156324884564544
645.366407660738,126,5.03184829558845,-1.06618117647242,-0.0286734801665732,-0.256077746216275,-0.941695345100439,0.0685941168698935,-0.309230188288345
646.368529411764,126,4.95209402790667,-0.899610837208133,0.0319153856555474,-0.51306054845419,-0.933982267447082,0.203706529070498,-0.270440546509316
647.37065116279,126,5.2691653499312,-1.11196623530168,0.0123048555087878,-0.263842624443997,-1.01948704781965,0.172735308291958,-0.193282065496449
648.372772913817,125.54810533516,5.5085110107433,-1.02048809818682,0.0408996070599111,-0.312657228657892,-0.89252183283949,0.253784466860321,-0.210720058686084
649.374894664843,125,5.61781577053351,-0.973602021903751,-0.0351041864159787,-0.421237227056901,-0.952182373276065,0.213588410918464,-0.0551402911955444
650.377016415869,125,5.72712053032372,-1.02793692571425,0.0402663941301443,-0.220609108167561,-0.868699711626564,0.271327697806276,-0.162749299868359
651.379138166894,124.541740082082,5.82268913070447,-0.988202257177407,-0.0585160833469754,-0.964444377448997,-0.931168775649072,0.0835497330841785,-0.471163027743194
652.38125991792,124,5.89588911400814,-1.01579529425407,0.0711315170525992,-0.105110770282484,-0.973821695620651,0.186632,-0.16961756976837
653.383381668946,124.462503419969,5.75242268266817,-1.00077432776918,-0.148189825166145,-0.364025219822558,-0.990856690422172,-0.116184705028263,-0.111568534392023
654.385503419973,125,5.26239516763323,-0.947871125926044,0.0569188604162692,-0.151792040495377,-0.978705453294762,-0.0545363008908407,-0.363588421819256
655.387625170999,125,5.00769294664843,-0.976359562997284,-0.114671131628124,-0.469973801783327,-0.927585262655124,-0.0536763916831578,-0.209076460053556
656.389746922025,125,5.12273652366618,-0.958305596429559,0.0826390813218144,-0.308408090987927,-0.830293476423903,0.149619089586428,-0.265591574536438
657.39186867305,125,5.23778010068393,-0.959196286142283,-0.128950283178603,-1.0107947620381,-0.924315455882033,-0.143729892791952,-0.248462334569809
658.393990424076,125,5.19212757013249,-0.970462630314481,0.106527263502176,-0.279172728230332,-0.88729870755145,-0.0740547432098155,-0.213402064001379
659.396112175102,125,4.9006270547883,-0.916534771817611,-0.0951668420225292,-0.546358396781542,-0.939915447884661,-0.117366732958435,-0.244887946375466
660.398233926129,125,4.60912653944358,-0.932509004701126,0.00856367352075773,-0.505440358167014,-0.915110591842552,-0.00820364027331066,-0.258162835101796
661.400355677155,125,4.37510315482215,-0.952927432743319,-0.0883971032058912,-0.223946718658871,-0.839201088923358,-0.106605920200039,-0.300630179474972
662.402477428181,125,4.22671397653902,-0.997841835878508,-0.135807341847076,-0.274623786917529,-0.894921838981509,-0.0332906688022691,0.0331865784636128
663.404599179206,125,4.44234409802287,-1.02879288372238,-0.0667847702326737,-0.0710616734872131,-1.06034242210552,-0.203653888262203,-0.0363559970860159
664.406720930232,125,5.19086390812525,-1.08928808892304,0.162786180027493,0.0703438127541667,-1.13251472070233,-0.109435429950233,0.0591260179571148
665.408842681258,125,5.54203522252646,-0.988988825217546,0.106555760535575,-0.30942345662305,-1.07009384268132,-0.412078884806872,-0.0829589777288172
666.410964432285,125,5.32163524541714,-1.18986356019251,-0.246899041109336,-0.366125813611952,-0.770046075926018,-1.13805687620157,-0.497047778384531
667.413086183311,125.492207934334,5.10123526830823,-1.00529947460197,-0.402078928953672,-0.821597289734093,-0.978162222280718,-0.442503594345092,-0.958069460439425
668.415207934337,126,5.05707500842678,-0.9993383236788,-0.615678047371291,-0.365890645182576,-0.798145034909064,-0.512610153147142,-0.576624637339675
669.417329685362,126,5.25987438718185,-1.58908232711867,-0.759353105758116,-0.468841111055144,-1.39267856061599,-1.58239286970716,-0.515242998724982
670.419451436388,126,5.40721159740077,-1.96041636260045,-1.69325144213972,-0.746970261000129,-1.61711528042415,0.043023218200306,1.01827886085216
671.421573187414,126,5.4781718385909,-1.42456441860902,-0.644861112447914,-0.437450775595707,-1.48635253079459,0.406675893145759,0.61364028511603
672.423694938439,126,5.23835615622524,-1.49208664372984,0.403698780235372,-0.498051396071078,-0.96508105982712,0.307665102657956,-0.528519526934185
673.425816689467,126,4.57793286925433,-1.7221638085368,-0.0914354580310973,-0.12263007684027,-0.904844373998974,-0.0560306189157406,-0.41883263702433
674.427938440493,126,4.37912759065659,-1.71207922818895,-1.8174590741625,-0.479100653509524,-1.36268259098874,1.30230229045973,-1.06271057607894
675.430060191518,126,4.79436174880284,-1.38734442408009,-2.15597073050622,-0.368999756560896,-1.16018513964055,1.04014401790124,-0.967933787269125
676.432181942544,126,5.00367298216147,-1.35302120812468,-2.15629838064315,-1.12474937926927,-1.29645645945169,1.30588486519348,-1.01590884464936
677.43430369357,126,4.94375612266764,-1.53508163066114,-2.15767676880995,-1.11317475791919,-1.16326019003066,0.944055895368455,-0.860818943299509
678.436425444595,126.515547195619,4.88383926317381,-1.9716469630647,-1.96897350169593,-0.755327262615166,-0.709963621771541,0.339056781092687,0.484753262523698
679.438547195623,127,5.06974957556783,-1.98393,-1.66940698772595,-0.389592425746187,-1.23423392620205,0.623516310752729,-0.262569110268465
680.440668946649,127,5.56886633488369,-1.98310344186045,-1.41692551514343,-0.526960466268513,-0.370356097242524,-0.663522710616385,-0.0394797748355355
681.442790697674,127,5.75837519483591,-1.98379436844502,-0.796041149136675,-0.915649048325221,-0.366169378249047,-0.665743627908926,0.101044913543395
682.4449124487,126.475965800277,5.56013045943925,-1.57102707864166,0.15775521817386,-0.197526421906326,-0.434362132064331,-0.758141784696818,-0.00147861398955666
683.447034199726,125.473844049251,5.3732156829003,-1.41378345462955,-0.0268720134691571,-0.120748386706493,-0.57597634296001,-0.774505976601443,-0.243757759004418
684.449155950751,124.471722298225,5.20024946867327,-1.16551253508031,0.0789301915871299,-0.23022351157276,-0.485528048722,-0.915085759918656,0.0971895849042138
685.451277701779,124,4.9968805541381,-0.990693680458014,0.234586248298816,-0.0662461988952045,-0.614668114881893,-0.847649207639506,-0.175230617845162
686.453399452805,123.467478796172,4.75671706589604,-0.69740612382043,0.190569615820798,0.0114940919837014,-0.654150354642778,-0.877217636293052,-0.170766615424276
687.45552120383,123.534642954854,4.59024553445967,-0.428480986179477,0.231828011973176,0.00554050953987024,-0.724421138429507,-0.625335960194186,-0.0664553032629143
688.457642954856,124,4.51144870117652,-0.575963197051076,0.231848917648123,-0.0427613747043141,-0.805064468391594,-0.612756896319809,-0.105704726607332
689.459764705882,124,4.4979441374418,-0.484695875495635,0.15075485253528,-0.0518848374841135,-1.00422574818442,-0.512212355017244,0.0111698413319965
690.461886456907,124,4.56080723488365,-0.503201046101051,0.45927245772922,0.014831755474093,-0.887561875308316,-0.600867508959805,-0.156793721823799
691.464008207935,124.543129958958,4.6236703323256,-0.335552506909143,0.435873307782237,-0.0965841318779982,-0.973991643309191,-0.446174725024002,0.100159296385581
692.466129958961,125,4.75364560610124,-0.272126766544134,0.454544239276845,-0.0867480895562773,-1.21538213451971,-0.353249259372734,0.160415000045577
693.468251709986,124.45262653899,4.96013780350884,-0.0884821839982856,0.755986221089321,-0.106205051367306,-1.52837626446384,-0.530273090100985,0.175052489003892
694.470373461012,123.450504787965,5.21883599689449,-0.169585051900644,0.402524896666467,-0.308774865784629,-2.00397901983314,-0.716545380493664,-0.406327709655814
695.472495212038,122.448383036939,5.53605262657292,-0.19014757906035,0.556618005699152,-0.351634003944939,-1.75937518061472,-0.554245554736041,-0.0785527341290978
696.474616963063,121.446261285913,5.55734085056122,-1.87888243673615,-0.196604096842947,-0.42495425624723,-1.97468760602801,-0.755379140248755,-0.517696572560734
697.476738714089,121,5.25250543511671,-0.611014251247723,-0.782757539422985,-0.355708013952903,-1.97026536046769,-0.741744532560645,-0.560891414524067
698.478860465117,121,5.00763407255812,-1.43097298778606,0.0176252842755149,-0.906780025404514,-2.00343334986706,-0.830569170285534,-1.46565286027966
699.480982216142,121,4.82773317581399,-1.70822351253841,0.39612568540945,-1.66888771726979,-1.68265593704274,-0.616519735959729,-0.275069310270324
700.483103967168,121,4.70472014227089,-1.97541631908343,0.730860755636386,-0.588738402298656,-1.44816925718893,0.316518343200307,-0.373518403281156
701.485225718194,121.564347469217,4.64230799961701,-1.97648189466475,1.82187599855722,-0.406770794818824,-1.32459355677363,1.19778635565835,-0.283517019430863
702.487347469219,122,4.73579914564952,-1.96288790868626,0.697432718823037,-0.302999388641472,-1.12284970086377,1.27641125969231,-0.242255504925348
703.489469220247,122.56859097127,4.99257781252405,-1.95370943822184,0.934213865366736,-0.63549298426844,-1.23335761559412,0.629440582731361,-0.31698140608501
704.491590971273,123,4.99710959817598,-1.87512036045808,0.138321714765747,-0.225465531046773,-1.35040217682384,0.961226856283209,-0.348508076311911
705.493712722298,122.427165526678,4.74188589021892,-1.68853979755535,0.273459244339434,-0.0850423190677344,-1.25335357410487,0.645851147502655,-0.0724069085010984
706.495834473324,121.425043775653,4.48666218226185,-1.52139011626733,0.161972562731111,-0.362905024441798,-1.27253615025509,0.60442468913779,-0.119651589938611
707.49795622435,120.422922024627,4.30281377026684,-1.28332795760305,-0.00479605557739748,-0.335495089901976,-1.16757910362011,0.592092777562735,-0.397762530507802
708.500077975375,119.420800273601,4.19062122963076,-1.1875500615542,0.0622748,-0.415651458544715,-1.0731019882363,0.336267328537015,-0.145834391982824
709.502199726401,119,4.35578532872035,-1.22376284997175,0.100139713615068,-0.225792512363941,-1.06289050890738,0.2068530618334,-0.138525233925395
710.504321477429,119,4.79471966627916,-1.160146748309,-0.0319950496941615,-0.172456103026048,-0.973913356516701,-0.0379317305555567,-0.255735445222227
711.506443228454,119,4.88116253090974,-0.981000198362169,-0.0421611729301103,-0.83439766623772,-0.959828317371587,0.0400866816898512,-0.134558485613833
712.50856497948,119,4.62551626161433,-0.941440353962348,-0.15881479539315,-0.266250291795556,-0.854962277257136,-0.0210394339057393,-0.190616371532984
713.510686730506,119.589808481529,4.63614579635413,-0.948181944048459,-0.0868974644218351,-0.734550622162626,-0.882568585408745,-0.228332438181439,-0.385157344454287
714.512808481531,120,4.90085124627881,-0.905568238379174,-0.023096022441593,-0.662065518585002,-0.904139501549473,-0.137826530926269,-0.357576916738424
715.514930232557,120.59405198358,5.03710392076605,-0.996743387285221,-0.0626034939322835,-0.399100243246986,-0.946871121181036,-0.0704770981553329,-0.0206934286963431
716.517051983585,121,5.0528492577182,-0.916586968536256,-0.0063721225717495,-0.396365951094433,-0.986371686040494,-0.206206509911261,-0.0690663377606409
717.51917373461,120.401704514366,5.06859459467031,-1.13047188236117,0.0202193529215022,-0.0698372946833363,-1.1763228383098,-0.478892897028324,-0.0491053674736656
718.521295485636,120,5.08433993162243,-1.11085320259794,-0.0279397215735389,-0.174164419731686,-1.20234386457155,-0.422692172554012,-0.024974175085622
719.523417236662,120,5.10008526857455,-1.09552850560807,-0.0502587346967474,-0.334104210247597,-1.02357905636531,-0.125782055915412,0.134839373504128
720.525538987687,120,4.50006793625277,-1.02256118755938,-1.36402254058792,-0.666283501670286,-1.0272039220962,-0.103298445118413,0.0104258553215247
721.527660738713,120,3.34637025977568,-1.03673485208102,-0.0386803550349007,-0.31042161391821,-1.02896709247216,-0.187462090557021,-0.101954073052573
722.529782489739,120,2.84444233122652,-0.62643171659108,-0.10217200444123,-0.4383668840605,-0.893020006432815,-0.09300710649016,-0.200937935210589
723.531904240766,120.61102599179,2.91869621257182,-0.972107042747998,-0.0762937940473914,-0.153152430828232,-0.906085269216611,-0.244785191796103,-0.0270813624104575
724.534025991792,121,2.99295009391699,-1.00295384979702,0.212679908821771,-0.246491339466136,-0.961695665184352,0.329884017258548,-0.333286212480487
725.536147742818,121,3.00907804685365,-0.867451123530842,0.0630158017695449,-0.937095790171529,-0.907308163532501,0.103678276805996,-0.41226342108606
726.538269493843,121.617391244867,3.36588926161363,-0.138354150744412,0.296196176679098,0.207944233349255,-1.1478300011395,-0.420400297596169,-0.0302789566988615
727.540391244869,122,4.05659165729058,-1.01768332373524,-0.0230196817727368,-0.447149798084552,-1.00934740000095,-0.319244259506527,-0.0607930280029228
728.542512995897,122,4.03390967605997,-1.00042862561047,0.0299912553750247,-0.40817370042991,-0.978125,-0.155796074073589,-0.0164147339385849
729.544634746922,122,3.41199291737342,-1.0012018459654,0.052387896632688,-0.208687970177363,-0.970346433270544,-0.163204821233734,-0.025198016278507
730.546756497948,122,2.79007615868687,-0.980290120886365,0.0847431121728954,-0.186627337298208,-0.98142799888823,-0.1078491148988,-0.0354981665041563
