Time,ZephyrHR,COSMED,ANKLE_AccX,ANKLE_AccY,ANKLE_AccZ,THIGH_AccX,THIGH_AccY,THIGH_AccZ
0,86.0224874999931,0.867286573512352,-0.996863483002064,0.0346613703224627,-0.284558394005565,-0.993616738593193,0.1302087445318,-0.198698135938047
1.00148749999971,87,1.3820501470247,-1.39896151875317,-0.327716545625693,-0.260904955623118,-1.30758580625083,0.0309125823766483,-0.211840190947507
2.00297499999942,87,1.89519642574987,-0.999035573441189,-0.217264671118213,-1.0058707239803,-0.855345740311348,-0.741557619086953,-0.343359591874016
3.00446250000095,86.973050000006,2.0470019010001,-1.08203365333311,-0.143882300000092,-0.43217976500058,-1.05049006999488,-0.0294550194961768,-0.285572848487645
4.00595000000067,85.9715625000063,2.19684726031246,-1.03803964999181,0.0118374,-0.159018331248455,-0.969404192187512,-0.0750085330727073,-0.484008190625004
5.00743750000038,85,2.08471571237499,-1.0255489187512,-0.972436374364357,-0.262330575627614,-0.963329427079086,1.17961816830419,-0.192569590852536
6.00892500000009,84.9685875000068,1.97233900212503,-0.963400915568517,-0.124671956795064,-0.342438239090274,-1.15495634999946,-0.198579500311844,-0.12457973343701
7.0104124999998,84,1.83662743100007,-1.03789164999722,-0.185342611487957,-0.381554370051045,-1.03611490000212,-0.172788676664771,-0.197417070002284
8.01189999999951,84,1.70300578249998,-1.35553060891246,-0.79627847013486,-1.295480722394,-0.707092345252538,-1.2891223247264,-1.32832551910902
9.01338750000104,84,1.72363642500002,-1.11413354164965,-0.145243509993364,-0.363193266686161,-0.811172100000531,-0.184987124997606,-0.45821408751199
10.0148750000008,84.0373624999938,1.74152062187493,-1.54705922500951,-0.113578381309864,-0.297456783690781,-1.04885096734555,0.178413978568307,-0.720470777038251
11.0163625000005,85,1.61538385475019,-0.892392427517021,-0.0289629379795446,-0.508086999930878,-0.91600774499922,0.206077310978914,-0.383643320028771
12.0178500000002,85.0403374999933,2.66477750931239,-1.17248380401414,-0.0846207402367422,-0.494362237591723,-0.735535467519815,0.433461531275386,-0.257084397494822
13.0193374999999,86.041824999993,3.67339154475036,-0.394864024983408,0.171245553768143,0.0567513911267646,-1.02571941000732,-0.230632776256694,-0.0725076544733487
14.0208249999996,87.0433124999927,2.76166736937562,-1.08364146094037,-0.212260439063119,-0.361983654660319,-0.964912109366012,-0.0776317096909954,-0.417131134290427
15.0223125000011,88,1.87506302300012,-0.995748720018671,-0.176386893355165,-0.436290140082355,-0.78174498999919,0.275671024999343,-0.790859649999883
16.0238000000008,88.0462874999939,2.02036383693758,-1.52655208374446,-0.137390125876004,-0.631240751259419,-0.757245407343632,-0.124708964694253,-0.297387638075901
17.0252875000006,89,2.16077553587499,-1.2563756156858,-0.111395724367088,-0.822741481230398,-1.53874798747354,-0.222795267325691,-0.112093263757429
18.0267750000003,89.0492624999933,2.1232047323125,-1.06177171686816,-0.148754346209469,-0.531927261592234,-0.952638611887232,0.0160216652576501,-0.486133773292349
19.0282625,90.0507499999931,2.0964223199999,-0.869779081418981,-0.448720068853049,-1.74219016185816,-0.840676749948272,-0.0461696156651226,-1.02376849977128
20.0297499999997,91.0522374999928,2.42202593599981,-1.30058284997196,-0.218124254390137,-0.602840543669063,-0.724194806166992,-0.325848911584221,-0.311036269524215
21.0312375000012,92,2.74078904525011,-1.80964926875061,0.0863940281272879,-0.52429091500172,-1.50218777501132,0.827179980039686,-0.11158930253797
22.0327250000009,92.055212499994,2.85705172912508,-0.988401377917295,-0.0638960342988404,-0.36213691041904,-0.955995928749657,0.0392043835012457,-0.265274599583823
23.0342125000006,93,2.97416621500005,-0.854847260007041,-0.17932759333345,-0.0678931333313527,-0.704035072543495,-0.542906622398398,-0.0790814799619282
24.0357000000004,93.0581874999934,3.11432439062501,-0.956279208256639,-0.00244476246161687,-0.318818143637796,-0.758398531269422,-0.334447374983166,-0.240372125030487
25.0371875000001,94,3.24246759737504,-1.67934446247683,0.0199896669807223,-0.592387068795874,-1.42005657500316,0.646023565009348,0.0250869694759156
26.0386749999998,94,3.07149865881259,-0.903255213109799,0.0352032604491086,-0.449899241203724,-0.929195343134972,0.235484121234363,-0.830986871320254
27.0401625000013,94,2.91542209425019,-1.57268318328616,0.383542961488899,0.338629999933789,-1.00073464999854,0.520868485002375,-0.32063191249636
28.041650000001,94,3.10254502618764,-0.941963902486454,-0.127286511243873,-0.0927756928722271,-0.824381267521542,-0.216152459407192,-0.316201945652275
29.0431375000007,94.0656249999938,3.27933258499998,-1.4193666926916,-0.112495330210908,-1.81551059576388,-0.92191709999968,0.376783543744564,-0.383924074975215
30.0446250000005,95,3.23450600449999,-0.96375892437598,-0.112243319565284,-0.56730423307739,-0.990316431254381,-0.0427191442881519,-0.537527863100085
31.0461125000002,95,3.15895505200009,-1.17592075999011,-1.31715960000821,-0.395304359993879,-0.914812500006759,0.4800406800375,-0.262190440006565
32.0475999999999,95,2.52309750562482,-0.519854653740074,0.0683569218121542,0.0324123969387779,-0.846716221590609,-0.256768265336215,-0.445825444313658
33.0490874999996,95,2.96209955124969,-1.10211998928217,-0.059287442737876,-0.341403216920282,-0.943480468753404,0.185909190601663,-0.303062716860877
34.0505750000011,95.0730624999942,3.35368827812461,-0.976900951564722,0.0243149258895273,-0.790170155228157,-0.979460723749787,0.0229190532408547,-0.277504137503244
35.0520625000008,96,2.88063565749974,-1.38740418749454,-0.316533526909753,-0.0700963362547578,-0.945834914996556,0.384137695687612,-0.450054137519428
36.0535500000005,96.0760374999936,2.42636568449997,-0.869707016555385,-0.074003439260245,-0.197686880593827,-0.780905569001277,-0.147264062453505,-0.212165314750582
37.0550375000003,97,2.295090703,-1.96326770625536,0.00598304349205421,-0.818361642509314,-1.19107759124574,0.606578169749803,-0.415368130122458
38.056525,97.079012499993,2.16381572150004,-1.03155471295357,0.0912466025534201,-0.236845213918821,-0.981672707820463,0.144086836822451,-0.504872991848783
39.0580124999997,98,2.09954487999939,-1.87379099980509,1.36140009937201,-0.661250127064344,-1.05038779994363,0.542519274978677,-1.11253784977975
40.0595000000012,98.0819874999943,3.09606500200091,-1.10110632824649,-0.132199058307401,-0.405034324796068,-0.770540606561862,-0.178824371982915,-0.476004882502749
41.0609875000009,99,3.83440856094802,-1.84940598749824,0.0246237242457609,-0.795720673753999,-1.3193868312507,0.654301241881473,-0.581343921538443
42.0624750000006,99,0.936731678393985,-0.994033055629939,-0.0561181201270432,-0.282075973739644,-0.918481320006295,0.122138954184532,-0.64882224748523
43.0639625000003,99,1.62173861277504,-1.30616674991287,-0.847846790622199,-0.44617367964506,-0.826904805037435,-0.312835969871239,0.0642426950653346
44.0654500000001,99,2.30674554715609,-1.44576516664081,-0.028614487186775,-0.429094189593421,-0.71298143746291,-0.325378900068481,-0.0981576643857985
45.0669374999998,99,2.99175248153714,-1.37377498757872,0.165238368967424,-1.03181919617407,-1.18794400357777,0.393300496433299,-0.285382146424644
46.0684250000013,99,3.57617074412424,-1.01243395812459,-0.173177303461077,-0.329982060043168,-0.929221687501469,0.0117294308237415,-0.240505633124278
47.069912500001,99,2.87518405050001,-1.26569020012223,-0.624292430074145,-0.355217114968682,-1.01327956998194,-0.200740259955389,-0.864114960109981
48.0714000000007,99,2.88968809321876,-1.63533470970636,-0.303343945932191,-0.932711105942989,-0.704427686227483,0.121804353795952,-0.0888740709099015
49.0728875000004,99,2.9041921359375,-0.496533187550437,0.013509812440787,-0.141881859397972,-1.32532656251358,-0.324550093757357,0.11067042498945
50.0743750000001,99,2.91869617865625,-1.02888665374285,-0.250750126661695,-0.461840297153834,-0.940553238750996,-0.0626002445027395,-0.191896196249231
51.0758624999999,99.0983499999929,2.96633367399981,-0.994360576934241,-0.111578201217083,-0.930497610073928,-1.00469680249336,-0.213719796227131,-0.302512909996539
52.0773500000014,100,3.40983239850049,-1.35781575004032,-0.98717209621848,-0.27775634061261,-0.950071079150111,0.851808122916346,-0.353861374149441
53.0788375000011,99.8986750000058,3.82276987025005,-0.286578774997455,0.0474678292470142,-0.0454783057480597,-1.04920440000245,-0.347678952498045,-0.114720151249744
54.0803250000008,98.8971875000061,3.88523264562503,-1.03759018749521,-0.0757494803124181,-0.229306784363582,-0.96532926148666,0.160271943988092,-0.436905059481186
55.0818125000005,97.8957000000064,3.89301521849986,-1.00047489333463,-0.093823997289916,-0.651916339992143,-0.918286439997576,-0.197609140002725,-0.335578249984624
56.0833000000002,96.8942125000067,3.29807656168753,-1.18217440002234,-1.23567514576946,-0.521880734604176,-1.05377871560505,1.15707749056305,-0.291616375628585
57.0847874999999,96,2.73880916637506,-0.313049476396291,0.152768933020307,-0.249209619124266,-1.19014471876674,-0.261182838745588,-0.229430637521872
58.0862750000015,96,2.55794553131228,-1.05431493956295,-0.148388186454604,-0.811016328893355,-0.947697717656854,0.0920789706863906,-0.432724849689913
59.0877625000012,96,2.41381184125021,-0.964515630553896,-0.0744894102572735,-0.633170016773767,-0.934655024997848,-0.132840590620967,-0.637231581260813
60.0892500000009,96,2.64510037193764,-0.93922587935089,-1.71045421287382,-0.328997708429623,-1.15916631873363,1.99499412514198,-0.370208495579714
61.0907375000006,96,2.856317975875,-0.269307594569611,0.0759855977786395,-0.0105108865174393,-1.07683715001559,-0.214872962477836,-0.173656579629762
62.0922250000003,96,2.8696527819375,-1.47132535619315,-0.302148147728535,-0.487223201226707,-1.02357388620745,0.533692695449125,-0.398366231851975
63.0937125,96,2.89321682799997,-1.04359003996924,-0.221368759988597,-0.24439132007363,-0.984999999984084,0.104658387982848,-0.396274240093575
64.0951999999997,95.8823125000072,3.01416146593743,-1.22377718753757,-0.265781442056781,-0.628719039240589,-0.543167317652687,-1.02279015016793,-0.710164632950347
65.0966875000013,94.8808250000056,3.02283071949899,-1.42515973570098,-0.169782340350853,-1.06617294599815,-0.627463771071786,-0.340600866426931,-0.300703517141551
66.098175000001,93.8793375000059,2.1709919116255,-0.845805439894337,-0.225299606756185,-0.330789090249477,-1.50032961094249,-0.423752765134448,-0.127156635050071
67.0996625000007,93,2.88045567150029,-1.05651499167389,-0.117995053330299,-0.172159345003107,-0.997217104638737,-0.0149985197089373,-0.333484624274238
68.1011500000004,93,3.50026300918748,-1.05623326171865,0.0982625822162891,-0.0470217802795444,-0.962942420318834,-0.0415395987299054,-0.482427037168284
69.1026375000001,93.1251249999932,3.33490240062503,-1.58920455000389,-0.714575159990739,-0.34553487750824,-0.726752482499913,0.423043667477042,-0.244761779977744
70.1041249999998,94.1266124999929,3.17249471756256,-0.224789251557528,0.585739004664701,0.0499734106522769,-1.10511173750767,-0.169871817503292,-0.0262755907443066
71.1056125000014,95,3.03513569949985,-1.08751707500377,-0.0971025105014857,-0.271464499997647,-0.878245473336858,0.257593874152441,-0.565210015022381
72.1071000000011,95,2.91354955875001,-0.974766161660005,-0.0581523576881413,-0.367968947089495,-0.98272396272917,-0.0140708209587723,-0.834532427280986
73.1085875000008,95,2.9216616075,-1.26848723125004,-0.909591525943157,-0.275081023124916,-0.87684651541877,0.629931211055088,-0.452277663742883
74.1100750000005,94.8674375000064,2.92150464374999,-0.439346421854066,0.021889482817099,0.00567255406287072,-0.898329291667851,-0.31623773958511,-0.194771624998976
75.1115625000002,93.8659500000067,2.855386439,-1.51070194991979,-0.151986445011348,-0.402728022507438,-1.0221736524771,0.392637312469734,-0.344483225004409
76.1130499999999,92.864462500007,2.78926823425002,-0.942518747747353,-0.108205041563341,-0.654984090539062,-0.903703535713957,0.0869747569291804,-0.687789112327045
77.1145375000015,92,2.73297966750002,-0.826716771654301,-0.0985151824393182,-0.735956365836655,-0.698916933701403,-0.485250386386529,-0.523559173722926
78.1160250000012,92,2.75170748375002,-1.69717343331916,-0.218583569371859,-0.571736989180267,-0.714928080621723,-0.0304460605997818,-0.12787547509579
79.1175125000009,92.139999999994,2.75890776999995,-0.438984000071477,-0.0262480801217029,-0.179456400014038,-1.33198300001333,-0.275372800004925,0.0126919000001241
80.1190000000006,93.1414874999937,2.66309015924993,-1.10037223749847,-0.110916390071972,-0.419261040631624,-0.927923482932064,0.204160406446166,-0.291188172964628
81.1204875000003,94,2.43908411183333,-1.0000359556084,-0.345003362453619,-0.264381380925469,-0.9745496787433,-0.253890978738214,-0.401189997559925
82.121975,94,2.21507806441673,-1.4439462166797,-1.18628316298788,-0.194249999944945,-1.13634302498391,1.74449498757573,-0.538453333732227
83.1234625000016,94,2.12102980475103,-0.920112854985167,-0.0696320919950101,-0.130252422504241,-0.765412969996121,-0.122958496241611,-0.418152032453287
84.1249500000013,94,2.9386492071883,-1.66413484377973,0.561444981244828,-0.648811059383032,-1.38337762053131,0.706560411159992,-0.317610557869808
85.126437500001,93.8510750000059,3.73632893987545,-1.04895745003053,-0.160885007587626,-0.131361352221855,-0.974647465618165,0.146586130137401,-0.364094297476764
86.1279250000007,93,4.39784648568776,-0.82497060527367,-0.331716204719029,-0.948898319095447,-0.647273208723844,-1.29189069134266,-0.550969873741264
87.1294125000004,93,4.88015276849992,-1.50586685000046,-0.152902349999773,-0.247144222540551,-0.701791514998262,-0.154954750002717,-0.350177319986266
88.1309000000001,93,4.17056382268763,-0.779555581112949,-0.303475118398083,-0.452779957548446,-1.5707963337611,-0.375845004250289,-0.215427353723117
89.1323874999998,93,3.52167179375012,-1.07422468748958,-0.137918268168205,-0.328022912514458,-1.03834968749076,-0.132390368762158,-0.200115350005446
90.1338750000014,93,3.301210621,-0.998827783138476,-0.0143157715713629,-0.36315207691573,-1.04816153554108,0.0259229930038532,-0.433970311547717
91.1353625000011,93,3.305136452,-1.17272137835925,-1.78078099165425,-0.579914928331223,-0.950000525109898,1.11443595987307,-0.339953801191703
92.1368500000008,93,3.24022623468726,-0.332588852910382,0.0920376240016081,0.0532499637653033,-0.974642986091646,-0.230048614249906,-0.237688546703457
93.1383375000005,93,2.7458168931249,-1.62547428751049,0.737688302791325,-0.831291795945168,-1.22672436331361,0.831111130818042,-0.292772584673475
94.1398250000002,93,2.27671450062503,-0.972723929688792,-0.12849980022162,-0.526514925050054,-0.959511762499694,0.0557808853096347,-0.225668315641062
95.1413124999999,93,1.96165654800012,-1.02998535999633,-0.161173460032,-0.688348280118269,-1.04747439998379,-0.318231800031659,-0.329212120025075
96.1428000000014,93,1.83359303106363,-1.65110677500705,-0.834609150599254,-0.478738171554515,-0.745611328123005,-0.0884408932130538,-0.190609239334618
97.1442875000012,93,2.81644785612585,-0.26572824749541,0.0631260092852408,0.0151943085446306,-1.01294542917444,-0.289072637908771,-0.164976974172195
98.1457750000009,93,3.59220669112475,-1.48479660615252,-0.274918638727053,-0.848328653707313,-0.923134811247604,0.334336900625811,-0.280684578119216
99.1472625000006,93,3.16666463749988,-0.958397937478736,-0.105721279131825,-0.463144843612303,-0.928059895827965,0.163774770833853,-0.521536666742173
100.14875,93.1712374999934,2.8850365875,-1.76261353746309,-0.790027221264432,0.27711553573824,-1.2787431488119,0.28205234170678,0.329875793944273
101.1502375,94,3.41882942499985,-1.19628119999068,-0.111400170121297,-0.266079033752737,-0.613266261248953,-0.431694706033988,-0.301042715843254
102.151725000002,94,3.85182835512484,-0.872436067219867,-0.209799121571195,-0.241058727508326,-1.49663452188588,-0.386779150624568,-0.0125910843208237
103.153212500001,94,3.66670414799951,-1.04681632499385,-0.271085932494308,-0.401505554992803,-1.10126361249487,-0.143462517616175,-0.246681310027221
104.154700000001,93.822812500006,3.15278082249966,-1.01634631667072,-0.140672664771022,-0.514959837501173,-0.979120678912423,-0.0288568378684167,-0.342694439067166
105.156187500001,93,2.81770351925024,-1.46329367500681,-1.55119688498175,-0.286077936496297,-1.0955516124781,1.66150202492824,-0.979651959935338
106.157675,93,3.43973742037506,-0.574912001645437,-0.0420616640848641,-0.0462178568392432,-0.898205028883668,-0.226557410125994,-0.398827166751979
107.1591625,93,3.86506101925012,-1.64842373750102,0.539876861912668,-0.874012129978462,-1.2431313083251,0.71483280791855,-0.296250403419915
108.160650000002,93,3.26080852868669,-0.994443976249315,-0.131927580311791,-0.410173052797532,-0.927552715833468,-0.0164485796752531,-0.230250089583213
109.162137500001,93,2.74577420562494,-1.01694379166842,-0.12704147082946,-0.299343270833751,-1.04747668750862,-0.170167053095213,-0.202289973099261
110.163625000001,93.1861124999941,2.68759278931246,-1.35459382502856,-1.43508634095531,-0.52533376273235,-0.971871243742256,1.50621551039816,-0.371399224580869
111.165112500001,94,2.63475256899999,-0.297155746657339,-0.0453628363122307,0.0158188476092145,-1.07305362000583,-0.352349605002085,-0.224196780006415
112.1666,94,2.6086788419375,-1.08004823560136,-0.169955806339285,-0.208549360664061,-0.865496072490777,0.372226528748513,-0.171913996244082
113.1680875,94,2.65746823799996,-0.93673379165864,-0.148277473009518,-0.402194162519401,-0.926308267489887,0.17794712749401,-0.279533262528109
114.169575000002,94,3.07352620500059,-0.870544848956903,-0.246057620102801,-0.877128922943512,-0.74104718438249,-0.669347571868724,-0.443321734369554
115.171062500001,93.8064500000055,3.37675113874973,-1.39571874999425,-0.181618082998591,-0.50042847399667,-0.681019531250569,-0.413005448749625,-0.200189428752734
116.172550000001,93,3.1379214071873,-0.621990500404665,-0.228527044519266,-0.437304696370006,-1.41769234375235,-0.322626115626587,-0.0367253383898689
117.174037500001,93,3.01125653875023,-1.05459827499842,0.0148057123836425,-0.265944516865321,-1.01204693625008,-0.0626932457496775,-0.249850584166087
118.175525000001,93,3.33254493762499,-0.987136165428737,-0.14591774143182,-0.656166037900536,-1.00049935499446,-0.332219666242996,-0.355980390003061
119.1770125,93,3.281879685,-1.00243610000637,-1.85102449999395,-0.397010550001384,-1.08918261666076,1.17317935007791,-0.697918550038444
120.1785,93,3.21782156250004,-0.543634176504558,-0.0547642215462668,-0.043977592422544,-0.941710620002074,-0.2679045604185,-0.246693470834306
121.179987500002,93.2024749999946,3.09263562499985,-1.82781861249795,0.23389646251232,-0.619011335003045,-1.20585846563051,0.737941755315117,-0.375422395623611
122.181475000001,94,2.98470213643747,-0.96924846525039,-0.148358777161445,-0.324402226502352,-0.951801038336218,0.0383043091166862,-0.490132351233052
123.182962500001,94,2.95395146274998,-0.833967916665667,-0.244138279998652,-0.744322049996164,-0.805674404999687,-0.311905177517423,-0.443582269984137
124.184450000001,94,2.95090454687504,-1.60448433592361,-0.362772429675853,-0.723666453158635,-0.619411099999782,-0.156031440635708,-0.19288603752013
125.1859375,94,3.06937050325001,-0.134328333750313,0.512656568126855,-0.106353055689387,-1.27927440626787,-0.136386978139154,-0.011042738394896
126.187425,94,3.15084550300002,-1.11595497811911,-0.16585559133635,-0.350060355630924,-0.942089175416828,0.134637288750954,-0.18824224083096
127.188912500002,93.7886000000053,3.0732101919999,-0.963670439998699,-0.0317240400271865,-0.496478119999229,-1.00537142499959,-0.354529362654504,-0.317656479983449
128.190400000001,93.2128874999944,2.86675552534298,-1.20994116874677,1.89800622259872,-0.983585093870249,-1.09694921871372,-0.107993381214993,-0.482322012494317
129.191887500001,94,2.11679411468694,-0.905591981243753,-0.127618700001053,-0.214395618745428,-0.583365885429804,-0.456651789574355,-0.651604124951808
130.193375000001,94,1.64648182640656,-1.2895875437999,0.108529337175409,-0.590944840009498,-1.51875133740241,-0.245680037455517,-0.266919316245308
131.1948625,94,2.33376514187511,-1.01083009999749,-0.0725038544955532,-0.374410255013336,-1.01528124998488,-0.152406107496802,-0.190335457512558
132.19635,94,2.87677496587501,-0.919465083589129,-0.222996470304877,-0.425467058729483,-1.00060736876381,-0.0136317283452066,-0.450243468703811
133.197837500002,93.7796750000052,2.83372101824994,-1.42909083751768,-1.31288401249074,-0.213593282502432,-1.13605096448924,1.72388433496436,-0.317213130508481
134.199325000001,93,2.79802885687499,-0.468840529122288,0.00974653602960999,-0.24238115996126,-0.878065098458657,-0.304169299998742,-0.55492454689078
135.200812500001,92.7767000000058,2.79168944099999,-1.86475330000706,0.429397950051475,-0.58076098499656,-1.39280665005148,0.575712190120979,-0.562891733847834
136.202300000001,91.7752125000061,2.7870057985625,-0.992081117504084,-0.181674326565561,-0.578022539377971,-0.947704109377683,-0.0307573911670502,-0.211415623438964
137.203787500001,91,2.788803468625,-0.993842605828808,-0.0424403135514636,-0.35653636424817,-1.06282933125014,-0.163728970435359,-0.420809938751351
138.205275,91,2.75495114843751,-1.62045699532465,-1.65797439530059,-0.382154478119009,-0.856843359372439,0.317801497772293,0.0198740152813165
139.206762500002,91,2.58407234374974,-0.359629331246627,-0.0120432093729779,0.00504753718913487,-0.872632812500423,-0.311092750000651,-0.460629689997864
140.208250000001,91.2307374999946,2.48690368606272,-1.69419167812988,0.451738802277925,-1.05951239878046,-1.29716565416242,0.851027161244099,-0.152971396220461
141.209737500001,92.2322249999943,2.66798764837517,-0.969690623497778,-0.0511737537952085,-0.556215098480511,-0.943718088750138,0.117652623446737,-0.252825420620538
142.211225000001,93,2.81478129212501,-1.09418110757577,-0.461476466302985,-0.721543918215159,-0.818145583749858,-0.0633078057220147,-0.585632193743669
143.212712500001,93,2.83442046200001,-1.81376495004668,-0.966551549933356,-0.329114294997513,-0.667305286666594,-0.0102519200356389,-0.109184753334009
144.2142,92.7633125000066,2.87073658937501,-0.21972958748645,-0.0237069198442893,0.0315330818628772,-1.05479143752244,-0.415218793733391,-0.0639009843753444
145.215687500002,92,2.96781077275015,-1.56118034993578,-0.198976864156125,-0.347765116177292,-1.07066600153305,0.512770350282207,-0.739426744426021
146.217175000002,91.7603375000053,3.09086862100028,-0.961714019235661,-0.0757447945691049,-0.589656613343282,-0.901519603430147,0.243174446566034,-0.427150458712543
147.218662500001,91,3.30694956400022,-1.61293501501486,-0.590730915002003,-0.254744694998201,-0.973088880384436,-0.153389392076739,-1.26201897846262
148.220150000001,91,3.48653235168754,-1.8296309562504,-0.494325799992838,-0.872279266877311,-0.722825292024081,-0.0371714923329945,0.0278738901760525
149.221637500001,91,3.53769334062502,-0.136437453119979,0.249807281260251,0.0719089843820436,-1.09248000000866,-0.184704499976947,-0.0947732906172852
150.223125,91,3.572328464875,-1.12765787812117,-0.0244571843635124,-0.46208908836144,-0.974760836875421,0.242949505624857,-0.216034998746831
151.2246125,91.2470999999932,3.549805011,-0.928149365012334,-0.0336799459991837,-0.547048650056679,-0.979062630002653,-0.0403598757565465,-0.342697000002216
152.226100000002,92,3.44164038087444,-0.993825290136047,-0.18821949377552,-0.296505022585433,-0.951603412490947,-0.729986934795724,-0.408722595842922
153.227587500001,92,3.04225718074956,-1.5827101649838,-0.292375388490872,-0.498460356991388,-0.583008114995026,-0.394750482526317,-0.166885940017008
154.229075000001,92,2.74983423000005,-0.264162263596544,0.139991752952596,-0.233908453172553,-1.29054212499977,-0.195844054166625,0.00272729833314923
155.230562500001,92,2.81505109600003,-1.18059334998768,-0.132974675170544,-0.155146944999818,-0.906894765833266,0.313024108332929,-0.339355146664755
156.232050000001,92,2.89909575525003,-0.996600528903845,-0.0631578920413595,-1.1002073919041,-1.00129536623708,-0.238476223403909,-0.831373529016173
157.2335375,92,3.04505254349999,-1.24139153412626,-0.218182287785738,-0.822699696250698,-1.06617235836607,0.16068972383924,0.169523075880272
158.235025000002,92.2575124999948,2.98419215868642,-1.46189721230118,-0.2350663362131,-0.371902919842904,-0.62454151936635,-0.475504940631805,-0.439652981220915
159.236512500001,93,2.25440320999913,-0.303473399991564,-0.0464227999741241,-0.281087239998313,-1.40020800005533,-0.247506400078932,0.0380757599761688
160.238000000001,93.2604874999943,1.87377985168816,-1.0710628631232,-0.223009430938095,-0.833026153811546,-1.07040840312577,-0.138488129059782,-0.389079528092318
161.239487500001,94,2.60412963337545,-0.97758314166924,-0.195212572718628,-0.342760504960948,-0.904351239989336,-0.14763527776414,-0.403234527505004
162.240975000001,93.7365375000063,3.15236704362499,-1.43881173113927,0.513918716490369,-0.688500267322637,-1.06011148749992,0.379334890623725,-1.02746518000091
163.2424625,93,3.1305045715,-1.03144765915745,-0.116799953589137,-0.442638317479512,-0.623213621504458,-0.355668855991095,-0.484800480981963
164.243950000002,93,3.13882109437516,-1.06695035417992,-0.101201078539686,-0.28136078750422,-1.61002043750654,-0.280723006231698,-0.443184548473287
165.245437500002,93,3.24010152525013,-1.1237832750023,-0.114772517500529,-0.212286868748237,-1.02770412499283,-0.197425336258234,-0.23342322000725
166.246925000001,93,3.31741760225,-1.03263481687473,0.0907375743724526,-0.34307283963554,-1.0002404062496,0.0250186238147978,-0.387302312502597
167.248412500001,93,3.322084534,-1.40342379998302,-0.0980091003649247,-0.347781490043277,-1.2787394391697,1.74612468333618,-0.446407295332326
168.249900000001,93.2723874999938,3.30957918562497,-0.775902001978162,-0.00786945092332279,-0.290758892476975,-0.684669175948114,-0.273334354668472,-0.612845804313653
169.2513875,94,3.24583450624999,-1.69268077083914,-0.0930604262548993,-1.10683442917453,-1.19249821873477,0.329254698202698,-0.469434918713513
170.252875000002,93.724637500005,2.98595026721736,-0.953601591254088,-0.0750411442482494,-0.312438611257983,-0.904277351564735,-0.0617954080653419,-0.206502146882754
171.254362500002,92.7231500000053,2.14995607287385,-0.896526945002263,0.370591684996592,-0.379124995000534,-0.971373484637477,0.0568067232714244,-0.416779766435996
172.255850000001,92,1.69252850140694,-1.61504722500872,-1.42540401249522,-0.161026944130872,-1.06837671749366,0.812775987803098,-0.196774866936384
173.257337500001,91.7201750000058,2.32981255343801,-0.34349006374544,0.0296210786741357,-0.0910006473124176,-0.964627884379819,-0.312597770622349,-0.202134397499301
174.258825000001,91,2.77692292239578,-1.85285164063526,0.389072835915579,-0.598310023429389,-1.02368648436097,0.601044617177321,-0.381141742195669
175.260312500001,91,2.68256110099998,-1.01693763333711,-0.0510207626674156,-0.216152000005457,-0.940924570004649,0.177879113760238,-0.307446399975401
176.261800000002,91,2.588199279604,-1.62345492125471,-0.302096179999951,-0.324225402916495,-1.04640715614591,-0.00863169854486127,-1.17762709457214
177.263287500002,91,2.4938374582082,-1.9241108125004,-0.520298109978568,-0.763008329973615,-0.5970407720833,-0.304219686296175,-0.50511681667216
178.264775000001,91.2872624999945,2.39947563681239,-0.139934473437865,0.0903635473806546,-0.0398522387168362,-0.94281876751436,-0.419132031867418,-0.218809897495187
179.266262500001,92,2.30511381541658,-1.71866124986817,0.0950076499011399,-0.467826374947803,-0.984938456244975,0.59885266560189,-0.335037175006182
180.267750000001,92.290237499994,2.21075199402078,-1.02224347520573,-0.0771000850638409,-0.269045467150886,-0.927597395003371,0.192336151558233,-0.305889656284997
181.269237500001,93,2.11639017262497,-1.01725909999941,-0.0862404887593917,-0.388682178226336,-0.959809238747737,-0.0295045414882454,-0.579603668155556
182.270725,92.7067875000066,2.02202835122916,-1.93502597497293,-0.950572805923297,-0.48121876019525,-1.12160733745709,0.964010494296534,-0.0331716830554196
183.272212500002,91.7053000000051,1.92766652983319,-0.276879209960961,0.0383942378602214,-0.0313043709857644,-0.957347024285677,-0.384539491429988,-0.366600162863956
184.273700000002,91,1.83330470843738,-1.51136406246353,-0.072413749378183,-0.479778270831933,-1.01207031247156,0.490691062473455,-0.292115293759212
185.275187500001,90.7023250000057,1.73894288704157,-0.963380157496636,-0.271123206275992,-0.279685996255842,-0.955208,0.212716966231212,-0.206397441259123
186.276675000001,90,1.64458106564577,-0.954387098281747,-0.230163599680275,-0.611966364608074,-0.836666238573198,0.0455727790309667,-0.701600379034146
187.278162500001,90.3006499999938,1.55021924424996,-1.91221635833658,-0.976480651569507,-0.581704718171805,-0.630853844960058,-0.152626965114807,-0.207763129983263
188.27965,91,1.45585742285416,-0.426862306236463,0.0440491628804485,-0.0287486550314907,-0.955490554998516,-0.360141575626418,-0.33776305500541
189.281137500002,91,1.60827645031378,-1.43241928124075,0.0217992337411847,-1.61563791247638,-1.41638050000394,1.02555481252933,-0.156563373760277
190.282625000002,91,2.38838764215731,-0.965835082911715,-0.065493595483263,-0.449894766232462,-0.944539062500371,0.13786135249993,-0.238914762499583
191.284112500001,91,2.93413761599996,-0.847859160020185,-0.15332961999965,-0.880047179983079,-0.660588689993546,-0.967228120014342,-0.651197847005198
192.285600000001,91,2.89243567649997,-1.90965255208261,-0.971709124773252,-1.33280084059164,-1.03004114592607,0.645309403539407,0.0770362723644372
193.287087500001,91,2.87868799725003,-0.282986427481179,0.0215414400016327,0.00201089317816057,-0.959654455022564,-0.457094278720956,-0.110241946509782
194.288575,91,2.93400015187501,-1.77004543750332,0.382160303116364,-0.25992512029908,-1.2738121666626,0.613695762496423,-0.256386816672368
195.290062500002,91,3.06836900450057,-0.960312273334691,-0.0777473354861231,-1.12915269494329,-0.936840038332289,0.097184305338642,-0.27882128833359
196.291550000002,91.3140374999948,3.39524450962547,-1.1741943742817,-0.273653213050421,-0.825029500012892,-1.18583837521188,0.2354797097817,-0.450082441511862
197.293037500001,92,3.60696663024993,-1.84870501249802,-0.787120164354046,-1.01624936003289,-0.526433776245988,-0.443067992505008,-0.325880226247784
198.294525000001,92.3170124999942,3.54228055262494,-0.257510706613552,-0.00936181730194276,0.0600703879312571,-1.15185503751921,-0.270009627481409,-0.205097877147885
199.296012500001,93,3.47151059999995,-1.40800777775618,-0.258305811097575,-0.547916750043322,-1.11510374997082,0.641387999965023,-0.484774625032116
200.297500000001,93,3.38634410299998,-0.984713721399501,0.0846643267238039,-0.670421195023865,-0.935944310001447,0.349557422913358,-0.326985338810291
201.298987500002,93,3.26209782749961,-1.70186312631981,-0.147785583802373,-0.345370465589176,-1.9911734625505,1.43713913137255,-0.0886842300263819
202.300475000002,93,3.04667786624967,-1.1167353127413,-0.0700496539619547,-0.500027647481701,-0.540542317710466,-0.486357876043326,-0.263308469588668
203.301962500002,92.6755500000054,3.02616687450053,-0.728812348810802,-0.612957029944625,-0.272815492514908,-1.65209979001138,-0.303401038660548,-0.280762619008935
204.303450000001,92,3.15497386531197,-1.01807152185922,-0.180818981221552,-0.613355956316185,-0.999979660924106,-0.0309061779714855,-0.347786290663121
205.304937500001,92.327424999994,2.60070561587463,-0.985732496658091,-0.1728146538761,-0.651270551352785,-1.00089775500813,-0.101903704743982,-0.156357836261436
206.306425000001,93,2.04643736643729,-1.3329110414094,-0.73880321337037,-0.158006239392138,-1.26957984843479,0.769166320334142,0.350328874318006
207.307912500002,93,1.8889305275014,-1.52357399998427,-0.279145244988034,-0.352375169990072,-0.616936304444485,-0.465833817777983,-0.615735637779112
208.309400000002,93.331887499995,2.61892728484494,-0.518187128446356,-0.0602918725154601,-0.224110735216226,-1.52062470501589,-0.342441387266084,0.0030317326663034
209.310887500002,94,3.15794968125016,-1.09665738888241,-0.0443229348282506,-0.219012879033898,-0.96118574642953,-0.0382756950018714,-0.155651610714567
210.312375000001,94,3.2680021680626,-0.884739461246824,-0.147174013655835,-0.777006681655997,-0.962661695400891,-0.199675005843287,-0.428143518753356
211.313862500001,93.6636500000059,3.36124566175007,-1.29264123999882,1.2830781569533,-0.117157964514603,-1.18373559998321,-0.250378714592484,-0.464456777522587
212.315350000001,93,3.43738468300002,-1.0139438222837,-0.129580504828987,-0.53923929397144,-0.67489356250263,-0.428474088331314,-0.359065397299347
213.3168375,93,3.47656287400001,-1.51617114167728,0.0765216585538401,-0.965584448791154,-1.13549177143301,0.401307286098997,-0.19974261071894
214.318325000002,93.3408124999951,3.51166185656255,-1.19579449996666,-0.211892149981429,-0.212806134429001,-1.02624193229133,-0.0342603631137723,-0.30737396562416
215.319812500002,94,3.53806607450004,-0.996417758502672,-0.166659539718796,-0.475939039956783,-0.889971106666845,-0.148663442217436,-0.434137113331617
216.321300000001,94.3437874999945,3.44991623656212,-1.42477893115592,-0.902447082213615,-0.156613000854985,-1.16878874377614,1.65666170836672,-0.47685279750221
217.322787500001,95,3.12090255562472,-1.06097411247206,-0.128004480999488,-0.371488987533722,-0.690331062501107,-0.384488840812822,-0.366641277506041
218.324275000001,95,2.88809468499998,-1.62126150004332,-0.180708253944393,-0.612488901206973,-1.14276374999439,0.232791587519562,-0.265762916251837
219.325762500001,95.3482499999936,2.85484529999999,-1.03202466666541,-0.170539558326653,-0.565788224991604,-0.998672087499422,-0.0421208087291775,-0.181640100024702
220.327250000002,96,2.88015556956276,-1.13175221249116,-0.0887648318866161,-0.0886413639037084,-1.03434160833277,-0.140650399298909,-0.16186857666375
221.328737500002,96,3.02530616037522,-1.63378711250215,-1.23094179999705,-0.436855553752758,-1.06291799586308,1.0996629958428,-0.346305486696042
222.330225000002,96,3.12255912475,-0.210453235415721,0.0394269568341954,-0.0603122516879308,-1.12857803751876,-0.314435831856382,-0.390849143598329
223.331712500001,96.3541999999943,3.123099928,-1.1821775999904,-0.263941952648772,-0.550391466709521,-0.908014186666513,0.340846599996078,-0.255885119994787
224.333200000001,97,3.09022720468743,-1.03275672915664,0.139946562497712,-0.178758968770782,-0.988827289063364,0.00118077574773329,-0.789957906323818
225.334687500001,97,2.99078450337496,-1.52043713632486,-1.10619907612252,-0.240834233402239,-1.41760471264144,0.892716878724728,0.294123880057529
226.336175000002,97.3586624999953,3.03883447037564,-1.07159493849383,-0.138021633999298,-0.65992786910558,-0.640296092083863,-0.376427978333549,-0.236499953332798
227.337662500002,98,3.37684651650054,-1.47771715002137,-0.225378281442949,-0.433195790070466,-1.5104748249322,0.0302612926266257,-0.664148994995575
228.339150000002,98.3616374999947,3.51808590437468,-1.03688478749758,-0.137320529098186,-0.256686004383171,-0.942555374999762,-0.0342961397760152,-0.44940955225111
229.340637500001,98.6368750000056,3.27757868124975,-1.05525137498713,0.149491594970347,-0.335896710032524,-0.923040162503125,0.105549825299329,-0.192355725010157
230.342125000001,97.6353875000059,3.16128909493759,-1.79389881749938,-0.826621270904803,-1.2606248925991,-0.731024414039244,-0.00350417756729142,-0.0880379611888849
231.343612500001,96.6339000000062,3.28282461050006,-0.206428334984384,0.0900206205076223,0.010467381646453,-0.932087725020236,-0.268557602475423,-0.208260362456657
232.345100000002,95.6324125000046,3.37211535800006,-1.16390749372625,-0.131945890389373,-0.386240609375341,-0.964831159697306,0.277099054058225,-0.503395097445242
233.346587500002,94.6309250000049,3.40047748400005,-0.988396222001746,-0.419530183493728,-0.209389080257103,-0.998283243745119,-0.259202762509132,-0.818392162425417
234.348075000002,93.6294375000052,3.41704362343749,-1.18015662500023,-1.59968991874973,-0.614212648749344,-0.979383968692191,-0.148929838110094,-0.126552500064686
235.349562500001,93,3.41161055374999,-0.54564001996525,0.078865164271679,-0.0744703512241535,-0.896374827520696,-0.165611509976936,-0.670751700048457
236.351050000001,93.3735374999942,3.39932062968748,-1.76689598438359,0.036173414077568,-0.877620663164955,-1.40930399583324,0.396311862500751,-0.556756445000793
237.352537500001,94,3.37440862812499,-0.920654472486321,-0.0418231798499831,-0.48129644750151,-0.932788828746799,-0.0301169496213812,-0.483867961248427
238.354025000002,94.3765124999954,3.3071657531872,-0.944723269157805,-0.085130708411513,-0.886513232032987,-0.962631974584732,-0.0166656338750946,-0.391444733740211
239.355512500002,95,3.16300663499974,-1.44682766674631,0.438824133319339,-0.365833036121086,-1.04881742857496,0.598149185736453,-0.687205814290055
240.357000000002,95,2.70160340620679,-1.12007593250778,-0.106575118644932,-0.554786128336796,-0.606099977498873,-0.409380358750812,-0.327112358750639
241.358487500002,95,1.67117625574875,-1.02856672498552,-0.205057065007429,-0.325986412475239,-1.65120256871864,-0.264749629340755,-0.479166080025052
242.359975000001,94.6175375000057,1.22550546629221,-0.969553569107066,-0.101815983696098,-0.38979421428695,-0.927413484749797,-0.0601015118682277,-0.239958999001298
243.361462500001,93.616050000006,1.8152358317226,-0.990458735003074,-0.089053810230647,-0.534029439936232,-0.989211377500714,-0.0925978134453475,-0.272531654993966
244.362950000001,92.6145625000063,2.40496619715298,-1.15197819534464,-1.69639363282235,-0.159191776569832,-0.984408808597211,1.25924118283009,-0.988814451539555
245.364437500002,92,2.78814857000005,-0.56768507373563,0.0380886566876213,-0.110437601854404,-0.926695460557841,-0.283901157223376,-0.374064168741764
246.365925000002,92,2.81258486500004,-1.5707218687529,0.149670720315315,-0.409707566035813,-1.01562834583716,0.334660491644015,-0.348354789993454
247.367412500002,92,2.8549921235001,-1.00768681166623,-0.0513012401705928,-0.437059191668807,-0.950531460003021,0.162560260000908,-0.307707119999871
248.368900000001,92,2.92821588206257,-1.0205669490097,-0.424643976282311,-0.76586402799761,-0.226693037997966,-1.31042048275459,-0.30747906749819
249.370387500001,92.3928749999941,3.01802526562509,-1.4971271249884,-0.084257622493018,-0.503858606243562,-0.652343749999858,-0.452763609375199,-0.246049375000457
250.371875000001,93,3.13591536668755,-1.51771356251701,-0.249164619963613,-0.456993521381485,-1.30023938740838,-0.0225900316689871,-0.234306406224782
251.373362500002,93,3.23675541550014,-0.994212390004752,-0.054951109493091,-0.32768494998185,-0.921718011997319,0.0844688895143793,-0.524240845996933
252.374850000002,93,3.30909285762512,-0.939116312091519,0.209227279300719,-0.223571378752484,-1.00093822250712,0.151870354776773,-0.236891419173585
253.376337500002,93,3.38517643462511,-1.79237047499898,-0.793621131198632,-0.457565193759807,-0.900674739987371,0.752588999887223,-0.0184519194575786
254.377825000001,93,3.46744362531259,-0.22853499998674,0.026383161948383,0.0274966100247624,-0.881747725007638,-0.408425796868336,-0.172664984368367
255.379312500001,93,3.47566996799991,-1.40269419997782,-0.0222952475153083,-0.585206449969164,-1.12812362996987,0.656277619979033,-0.623274646054568
256.380800000001,93,3.36321293662494,-1.00479706062734,-0.0505384585665647,-0.417648004735327,-0.926479797498712,0.161418317497236,-0.459843743740425
257.382287500002,93,3.24211521112472,-0.93799104624058,0.0922320449076884,-0.23285767131712,-0.79660546875999,-0.235707928796541,-0.859421826263089
258.383775000002,93,3.10710968868726,-1.82106641873954,-0.51168367309629,-0.372892660280785,-0.744759659353054,0.411085748709987,-0.0962906613609563
259.385262500002,93,2.97453102249981,-0.141342474990243,0.147722233761534,0.0549184875011599,-1.11710937503269,-0.360359937465397,-0.18057798749488
260.386750000001,93,2.84580983412485,-1.05236260061219,-0.0958800560724757,-0.740278788378133,-1.03793050312394,0.241023267174561,-0.402048372522142
261.388237500001,93,2.88846047137528,-0.890032001245341,-0.088075120117329,-0.414676621271681,-0.894723953770293,0.148991894987038,-0.396322103754398
262.389725000001,92.587787500006,3.20011837393769,-0.537665000353104,-0.157325943613519,-1.03003765383628,-0.608876850395711,-0.906991560284837,-0.674383068229517
263.391212500002,92,3.3531726004998,-1.65241659997592,-0.317339319975246,-0.522407234989053,-0.593820936000404,-0.451615411999835,-0.286350146000233
264.392700000002,91.5848125000048,3.26034973156233,-0.180923,0.193379858174683,0.0941576681307338,-1.02734443959582,-0.242998766657705,-0.124063931246336
265.394187500002,91,2.93722521806144,-1.09670072499386,-0.00664380243410325,-0.23947100399618,-0.971038808747337,0.185145344998855,-0.376916897515952
266.395675000002,91.4181624999947,2.26148905346788,-0.997969125202446,0.063375291616377,-0.449800581694101,-1.05316655377352,0.000488425536211163,-0.372408685018972
267.397162500001,92,2.03910165537546,-1.36750406377195,-0.206805352420158,0.131130489990051,-1.33246756595526,0.446475276978199,-0.0544471319528486
268.398650000001,92.4211374999941,2.50226709065658,-1.04234054748637,-0.160781225623846,-0.469025093734707,-0.635772021257803,-0.503073885627224,-0.383247266286931
269.400137500003,93,2.73801738999977,-1.58073443748263,0.151099924980785,-0.616399650008848,-1.77780418749874,-0.315128643752291,-0.23420562499737
270.401625000002,93,2.6341030469998,-1.00777398165523,-0.154458357171433,-0.534670843515215,-0.962950338746591,-0.26025482123724,-0.42795832725081
271.403112500002,93,2.60753473733348,-1.01807229611158,-0.216210453867554,-0.948623268629361,-0.980354499997476,-0.36178922846429,-0.368034500040092
272.404600000002,93,2.69507142141679,-1.70472771868802,1.47573975650143,0.11040090286718,-1.28069028586823,0.0466931281974331,-0.573108307573632
273.406087500001,93,2.7826081055001,-1.18698724083273,-0.153454296250169,-0.577602870000111,-0.646213875009231,-0.368553319160929,-0.213250910015958
274.407575000001,93,3.04292597187541,-1.43915687507624,-0.084888068722453,-0.475339937547303,-1.51856874999521,-0.145292467181231,-0.324183203123582
275.409062500001,93,3.31128125999996,-0.992037122499451,-0.199741601255562,-0.432733949987869,-1.01633494500723,-0.0938651319005019,-0.372074982524126
276.410550000002,93,3.23102872833317,-1.01533974757308,-0.0434103276252697,-0.749680225807963,-1.02756693939743,0.0906116342273775,-0.189359094533208
277.412037500002,93.4345249999951,3.15077619666653,-1.21393441505623,-1.83173808747814,-0.587165217288907,-1.09193045002775,0.935031558914888,-0.557881027494973
278.413525000002,94,3.02697363662473,-0.812912353419872,-0.121372878312281,-0.227878350304442,-0.729745516638833,-0.136223363756983,-0.389266775526566
279.415012500001,93.5625000000055,2.84162834499978,-1.69041983333501,0.0717101500120246,-0.654692233294269,-1.20319412501248,0.545816475008952,-0.108738522994038
280.416500000001,92.5610125000057,2.79765687556264,-0.965547543746776,-0.0884665681815407,-0.426104083439298,-0.946134607339681,0.0688133683080653,-0.497357787156928
281.417987500001,92,2.95103969362509,-1.09480172000408,-0.0395879225138624,-0.171089193254944,-1.09725996875168,-0.109556635697032,-0.289279808755693
282.419475000002,91.5580375000045,3.02494058206242,-1.66341969688469,-1.26572887811192,-0.285993891011076,-0.915668985610049,1.04376323741399,-0.472386210946507
283.420962500002,91,2.98923254524993,-0.2491959993711,0.0514771077380364,0.040156259062854,-1.01594371031917,-0.27808741718171,-0.122952287680278
284.422450000002,91.4449374999949,3.07116716468788,-1.68703341248935,-0.0185785356733353,-1.08109684498036,-1.1958354999429,0.801703193723487,-0.337071500047504
285.423937500002,92,3.31337190912531,-0.990757145000051,-0.0193592123754803,-0.312986703749653,-0.903952900750513,0.25649223550148,-0.572397673523413
286.425425000001,92.4479124999943,3.05571868196784,-0.885053497496345,-0.196313450625032,-0.869002786244219,-0.464056640544856,-0.859851491345396,-0.495606990579018
287.426912500001,93,2.12531426099936,-1.699609866656,-0.303317879997996,-0.535202853327741,-0.696833055997221,-0.14696574433536,-0.239099772814701
288.428400000003,93,1.85155654797008,-0.284290775594814,0.338988432555968,-0.175350442868992,-1.13172166247482,-0.223742553748459,-0.058524816888999
289.429887500002,93,2.45090926093866,-1.08851573957769,-0.188095071882708,-0.856952129234637,-0.953587193745808,0.0790040843962527,-0.355079774972492
290.431375000002,93,2.47929469328006,-0.967677673745191,-0.245190582498249,-0.344063479994874,-0.914031340001114,-0.24420261211858,-0.786126368732971
291.432862500002,92.5446500000053,1.75763531937402,-1.17285437500211,-1.30324622499594,-0.160757974498586,-0.9691016349991,1.17442553499435,-0.47977250499986
292.434350000001,91.5431625000056,2.29558227706482,-0.434665514993041,0.0637429061240311,-0.0106541939176601,-0.931534040937298,-0.295014001564057,-0.310151737502367
293.435837500001,91,3.39661980874978,-1.74000057916656,0.157554894397186,-0.73681512080767,-1.29911788250009,0.809873954750038,-0.205744810299899
294.437325000003,91,3.11515174687435,-0.976197039584119,-0.0234410014604475,-0.448587337482996,-0.944866349999088,0.155761748438587,-0.438805031253584
295.438812500002,91,3.03825807250037,-0.830326679998303,-0.154740405334794,-0.449309926666845,-0.629338864996002,-1.28289841251606,-0.329145574983151
296.440300000002,91.4627874999951,3.22210614031282,-1.6932475312455,-0.156372286872297,-0.449091496872872,-0.719847338541915,-0.0771657436719529,-0.201530323373599
297.441787500002,92.4642749999948,3.14411166562441,-0.553813122527092,-0.239073305129866,-0.31985608251731,-1.51186203751309,-0.263306882510891,-0.0498669586174038
298.443275000001,93.4657624999945,2.73638106718703,-1.08834563749803,-0.040431671059787,-0.374715122486832,-0.968006843747996,0.302630656880165,-0.247455671240921
299.444762500001,94,2.62926231875023,-0.945178999999371,-0.0782724083346232,-0.434103250003295,-0.978472041668182,-0.00419884583875757,-0.463195000006609
300.446250000003,94,2.89617375981314,-1.51665519996629,-0.797215519987025,-0.313274519951609,-1.36755217114073,0.112608159311578,1.10055466967022
301.447737500002,93.5297750000045,2.67561543049827,-1.19090220623916,-0.0602836826904607,-0.288150992523761,-0.706442375012824,-0.299886403327707,-0.332201499998678
302.449225000002,93,1.8557777332485,-1.45748832505758,-0.0622368588107049,-0.419137673124563,-1.62374828749525,-0.115918390159494,-0.705056717543849
303.450712500002,93,1.78540501100129,-0.990150399993588,-0.0972825559884139,-0.386456449930894,-0.954503504997404,-0.00795373969926773,-0.426366415005615
304.452200000002,93,2.62540765906355,-1.07796050002044,-0.0683029289192314,-0.205339568660088,-1.02443241877134,-0.0807550667698704,-0.391677543768595
305.453687500001,93,3.01661913649986,-1.13510412500044,-1.31031618755701,-0.778051544980629,-1.02896935000944,1.20834708337381,-0.429256757511708
306.455175000001,93.477662499994,2.8691801467499,-0.605811771840197,0.0957060415039721,-0.136581418859638,-0.856631621584092,-0.38783831969148,-0.436391510013965
307.456662500002,94.4791499999956,2.8716272202504,-1.85656154999604,0.61253961748211,-0.552079072488582,-1.16065476875569,0.698850536264995,-0.357194027484725
308.458150000002,95,3.05182987356284,-0.954418245833297,0.0553723011427044,-0.413594961666132,-0.93923828906273,0.313270391875957,-0.269371460623821
309.459637500002,95.482124999995,3.24459126625034,-0.95677857511061,0.0943129625990473,-0.263410374671217,-0.215846668600251,-1.31603345649204,-0.293871981211921
310.461125000002,95.5163875000053,3.45206943162528,-1.82034291874591,-0.304976458692769,-1.19257022887718,-0.800505859366992,0.123928819604205,-0.0487533331363666
311.462612500001,94.5149000000056,3.40510477199964,-0.418847752386363,0.132358436165072,-0.39533619599254,-1.36372210007754,-0.267742950010534,-0.202282780018678
312.464100000001,93.5134125000059,3.06351741549974,-1.17393491874656,-0.196236322057381,-0.514055486256786,-0.970950993752553,0.154896789339966,-0.418031354210427
313.465587500003,93,2.57980951594296,-0.920647418474531,-0.0385478191747269,-1.04795820623665,-0.941870133750343,0.0258509167539354,-0.496092435624296
314.467075000002,93,1.93349176847093,-1.23207209996762,-0.236893449932758,-0.731650537432525,-0.959242918780099,-0.442341374902813,0.340449017535691
315.468562500002,93,1.28717402099889,-1.3716591124944,-0.132520316250163,-0.270528597496255,-0.65315885500037,-0.503324004999804,-0.184190942499497
316.470050000002,93.4925374999948,2.13875225071196,-0.921653921296481,-0.313259351200156,-0.239721709893677,-1.61025862188918,-0.381294639692487,-0.142433575108121
317.471537500001,94.4940249999945,3.17992295087428,-1.10593138500043,0.00672825749718181,-0.287199483999816,-0.974229917222105,0.186312522222159,-0.228850211664057
318.473025000001,95,2.55215887210363,-0.992369120181457,-0.145743801709648,-0.360579660320677,-1.0049398900003,-0.00662828596690779,-0.366873919246446
319.474512500003,95.4969999999958,1.92439479333184,-1.0773472,-0.37684,-0.3469568,-1.62472066670298,0.906156000097819,0.146571186655545
320.476000000002,95.5015125000045,2.05399711478326,-1.3518147187413,-0.136837478809457,-0.540651456231944,-0.654993323752155,-0.385275090008754,-0.101777084259016
321.477487500002,94.5000250000048,3.01474159956424,-0.728251413746694,-0.183362263761926,-0.343263835104883,-1.4569122249943,-0.330258619994836,0.0696605365809585
322.478975000002,93.4985375000051,3.44501824849978,-1.10075407499888,-0.157795532869272,-0.362194503761764,-0.958886718763856,-0.0258393286580084,-0.271013737508713
323.480462500002,92.4970500000054,3.30004291799982,-1.00475789843775,-0.108811598946778,-1.0949691011228,-0.998929169998769,-0.254869212488329,-0.38794758750121
324.481950000001,92,3.33306202343771,-1.15115242187683,-1.18757472660431,-0.790072781234101,-1.0313330468767,1.23318131702412,-0.867436437501104
325.483437500003,92,3.55681936812555,-0.404514804162886,-0.0340992918926003,-0.130336841665971,-0.94437231125234,-0.37351992375884,-0.384846837476299
326.484925000002,92,3.12281568143503,-1.81284309998725,0.418949959948436,-0.549043309951599,-1.30496969997089,0.820608311844117,-0.115293573463731
327.486412500002,92.5088999999953,1.99229152449785,-0.982223585000096,0.0369993059996424,-0.388119904999869,-0.89013039249991,0.235438143750218,-0.437819754997347
328.487900000002,93,1.81275739225131,-1.33313059096938,-0.448275244577197,-0.289146227564869,-0.932588198749307,-0.166601042503194,-0.572258896248209
329.489387500002,93,2.62834878250108,-1.91622947916824,-0.469868541674439,-0.880095358323316,-0.764462571801379,-0.0401798251482593,-0.110638335087889
330.490875000001,93,3.09316143325011,-0.216026408750503,0.244436440066645,0.00181521485096328,-1.14449033437644,-0.257530537498969,-0.264867928752118
331.492362500003,93,3.19525306900026,-1.34816564166571,-0.221475342499754,-0.872789841665472,-1.06792322497972,0.343840559973804,-0.808526403380321
332.493850000003,93,3.29734470475023,-1.01799266135643,-0.0599027990265188,-0.710763493757538,-0.930751480000495,0.219903231249074,-0.281286232499347
333.495337500002,92.4821750000046,3.19568840799939,-1.00492463686122,-0.28275425748859,-0.889043138153858,-0.455630068093112,-0.551049142567662,-0.566593813118418
334.496825000002,92,2.88707001999948,-1.82462687501675,-0.218797990628932,-0.451636899989976,-0.684964526038821,-0.221697628770432,-0.237850061691445
335.498312500002,92,2.65755497799979,-0.701607360002339,-0.365218759974577,-0.35717380997058,-1.49098726666691,-0.286251880015582,-0.0819038046670192
336.499800000001,92,2.50744201662483,-1.08601369375657,-0.11330932258908,-0.24092861249386,-0.947322062916967,0.162222894585584,-0.184869545001798
337.501287500001,92,2.51179913237513,-1.01368983604207,-0.0726553223102339,-0.641539712343891,-0.969028125000461,-0.244388368001138,-0.430498395995922
338.502775000003,92.5252624999957,2.66937818306287,-1.54036509691103,1.26504406053283,-0.205627353247138,-1.31631508623356,0.246008448133174,0.0122209918586682
339.504262500002,93,2.82258249625031,-1.02143074167432,-0.115328340001716,-0.631322333334849,-0.580716287497774,-0.510295862501263,-0.350230249997114
340.505750000002,93,2.97149868006277,-1.80092412187531,0.112121914986669,-0.621934578594125,-1.44336891876199,0.0882468807259089,-0.545081992509253
341.507237500002,93,3.08475578500012,-1.03893625000707,-0.188053005357273,-0.181164604989757,-0.965723667498238,-0.13629568249913,-0.167249522500307
342.508725000002,93,3.1634727025001,-1.09247723750761,0.00721693220204554,-0.27061000626343,-0.954921564204095,0.012782199624171,-0.386577748295357
343.510212500001,92.4673000000057,3.2045361755,-1.1812136999647,-1.35683798026198,-0.650467519940052,-1.11236277499833,0.253377650071376,-1.04009194002964
344.511700000003,92.5341874999958,3.20955863531251,-1.05256953437399,-0.0661315946876287,-0.152571592498925,-0.618014683124559,-0.384346937500593,-0.704012887499303
345.513187500002,93,3.26781135700024,-1.52223135001748,-0.215931610444981,-0.297525586258141,-1.45350158747011,0.0386130447986918,-0.366381735017929
346.514675000002,93,3.3764126615002,-1.02872279468567,-0.213855477557494,-0.601786761897218,-0.967996022430705,-0.152381194597378,-0.391138154792063
347.516162500002,93.538649999995,3.34832848349975,-0.999870729381294,-0.150627164915783,-0.591271388724133,-1.02285270916673,-0.200964964416146,-0.894255177497952
348.517650000002,94,3.1924870136248,-1.1386617624987,-1.67192110503273,-0.468308459738661,-1.01411718750486,1.15641447011314,-0.60319315187752
349.519137500001,94,3.05443009374988,-0.801631933036018,-0.157001391518043,-0.0508637569643594,-0.650911468760469,-0.242448593724317,-0.371417437515127
350.520625000003,93.4568875000041,2.93279943687469,-1.65412096250193,0.161819814335429,-0.601316628750225,-1.21859133436058,0.426869938429583,-0.0639733990785248
351.522112500003,92.4554000000044,3.04498236000074,-0.992999940000166,-0.084215959597999,-0.314756808003049,-0.935368126667684,0.0617377800061537,-0.382108813317173
352.523600000002,92,3.37056594625064,-1.05000981249836,-0.365312158326588,-0.406436810839303,-0.988869434210454,-0.0928646089639158,-1.23047245380378
353.525087500002,91.452425000005,3.44317500387474,-1.7449662812458,-0.305902139991005,-0.543612845003717,-0.754766609377177,0.0251349256826806,-0.0285613108395092
354.526575000002,91,3.28762897281228,-0.357894426588367,0.391853616957265,-0.288352677173648,-1.51801750001573,-0.319221150011261,-0.00964047898653372
355.528062500001,91,3.12704427349982,-1.15517012499618,-0.0744210030202214,-0.243660117490124,-0.943627430001272,0.187467799994459,-0.217157057498897
356.529550000001,91,2.96196908887487,-0.968676584850516,-0.0750831557528726,-1.2452348851944,-0.995238616252936,0.049589987308811,-0.301177885013901
357.531037500003,91,2.87074180862494,-1.29197181239857,-1.9426138765267,0.306262266376034,-1.09192939750342,-0.158101332510309,-0.547526804504531
358.532525000002,91,2.84454790306245,-1.02125510082948,-0.159477653746073,-0.318199083332111,-0.696777343765206,-0.379954826248999,-0.302215142521714
359.534012500002,91,2.78313951749984,-1.61998812502347,-0.299176700066525,-0.678124924965251,-1.15250400000414,0.0940873449870317,-0.135260599999975
360.535500000002,90.4420125000051,2.69108779393736,-1.05698888124677,-0.10709394349871,-0.512679252510898,-0.961144248125014,-0.0186015497188585,-0.197051091249798
361.536987500001,90,2.70098015737512,-1.10577429999936,0.127884475006621,-0.166758454236994,-1.07636132814472,0.0534671657224,-0.156224878745889
362.538475000003,90,2.79853004731277,-1.83299534584068,-1.30763725829531,-0.428972185027891,-0.647107149375051,-0.15798295928656,-0.103388392947358
363.539962500003,90.5624499999958,2.48296035537338,-0.55908605664805,0.051808192496569,-0.0852879389940395,-0.951073071251857,-0.278223993750065,-0.344604094993418
364.541450000002,91,1.81638780140482,-1.79719847914859,0.494545670107483,-1.44120709995477,-1.28733114062738,0.983894475002946,-0.204276868768676
365.542937500002,91.5654249999952,2.03501763193929,-1.01651242374287,-0.144836569486529,-0.344144426174273,-0.921206883746872,-0.114627400861056,-0.186288035006048
366.544425000002,92.5669124999949,2.99680366372026,-0.969914526619881,0.00934859824572274,-0.461020184747607,-1.0018816518728,0.135994969251565,-0.537957858768637
367.545912500002,93,3.36020622799983,-1.09660797998223,-0.259516520009774,-0.288630409985646,-1.13087790000728,-0.216267186495174,-0.727287370023012
368.547400000001,93.5698874999944,3.22722871774987,-1.51109067054413,-0.415546848413491,-0.357775219761881,-0.796187500010436,-0.902594533202697,-0.679757099933023
369.548887500003,94,2.76665837593566,-1.7543153125097,0.559989350058628,-0.360464521898887,-1.37121081249323,0.379457225014624,-0.480878993742157
370.550375000003,94.5728624999956,2.03757797965462,-1.66629586873216,-1.21690297199886,-0.305417960633555,-1.61730336190798,1.87757963977155,-0.916085259379014
371.551862500002,95.5743499999953,2.8992142117542,-1.90649187503632,-2.15954242500025,-0.328527068759431,-1.29066392369046,1.80433191243811,-0.746296224890759
372.553350000002,96,3.92624617387521,-1.94975767249696,-0.702086452461469,-0.809472130995647,-0.600312701877488,0.020684696255239,-0.115411537812849
373.554837500002,96.5773249999947,4.04935903225017,-1.57661446562679,-0.173192750875882,-0.480736608436234,-0.207212222490749,-0.720812122461731,-0.446566624940552
374.556325000001,97.5788124999945,3.50749663671758,-0.961772839286567,0.0776526982141073,-0.0804688176788574,-0.336621242216987,-0.530615195315744,-0.467102765622382
375.557812500003,98.580299999996,2.4367237277472,-0.27684981624494,0.305944263742272,-0.0526739867528458,-0.861708156713998,-0.612489392463059,-0.897323204931969
376.559300000003,99,2.42296796178315,-0.202606487802958,0.117276236044833,-0.0658596621229722,-1.32447662189968,-0.266106797473079,-0.147979447478741
377.560787500002,99,3.23987881181417,-1.57830143792841,0.600401395842354,-1.43607438832322,-1.9996629999969,-0.381352303747924,-0.248777084758496
378.562275000002,99,3.13586247699856,-1.75038288440371,0.53878526099039,-1.0885646057562,-1.70136359873398,0.36988900603854,-0.865465327109353
379.563762500002,99.5862499999948,2.3168059399988,-1.97682187499965,0.963935687402403,-1.49887216223877,-1.59690100001406,1.30907382016808,-1.07308036013316
380.565250000001,99.4122625000055,2.37339567843836,-1.87767096247973,0.418881773654559,-0.952487223779358,-1.22394773122538,1.08577999739379,-0.272181957493426
381.566737500003,99,3.10170242562697,-1.55387229998388,-0.11131401419237,-0.793339827481928,-1.12861917033062,0.567020571510076,-1.01852943244552
382.568225000003,99.5907124999958,3.64066237487596,-1.13108835498247,0.00153710612611258,-0.0552697468864785,-0.860192390621483,0.307208448096993,-0.108901035990323
383.569712500002,100,3.9718968720006,-0.975054710003113,0.0312196989989789,-0.787293139999439,-0.840174901994233,0.291543366004843,-0.438743496007913
384.571200000002,100.593687499995,4.25475199406302,-1.09344323749948,-0.199663931248752,-0.259267302501318,-0.830698536881677,0.230208923756493,-0.219420655131195
385.572687500002,101,4.24311275862464,-1.02382587777781,-0.175928379164831,-0.169262476654717,-0.924956116605879,0.163421675358251,-0.246587186429687
386.574175000002,101.596662499995,4.01230494193721,-1.00229750781266,-0.00338620228196541,-0.518992352057044,-1.01356716958365,-0.117286599253514,-0.642289650412347
387.575662500001,102.598149999994,3.8577559547499,-1.04341939188494,-0.127960634455382,-0.53931563126907,-1.12054597500873,-0.0656683836230571,-0.379443491262184
388.577150000003,103,3.75927468143725,-0.325136429926208,-0.816219541241736,-0.581703317339069,-0.316477887537862,-1.50165867503209,-0.215352938115666
389.578637500003,103,3.78034846875024,-1.653189984375,-2.0443272515254,-0.59442569375362,-1.2068991974282,0.463855090159321,-0.838963232618415
390.580125000002,103.602612499995,3.88825874687521,-1.66677936461435,-1.99766211455622,-0.860230817876557,-1.1672475812519,1.48853323125343,-0.0862102968503068
391.581612500002,104.604099999995,4.25781182600092,-1.87151184999512,-0.311409984481389,-1.14049442500708,-0.418170386665861,-0.86151801666738,-0.272439123336719
392.583100000002,105,3.68859214040438,-1.03961400614817,0.104153740981532,-0.11897954513391,-0.330312802988964,-0.61148249249701,-0.461856983764911
393.584587500001,105.607074999994,2.31600094356103,-0.661862492485049,-0.00368371950579961,-0.181298557494602,-0.748666797563975,-0.508416018753003,-0.647168661200633
394.586075000003,106,2.61421716078509,-0.256179465625224,0.194916825928961,0.00765371868012439,-1.06279258249961,-0.425861871875393,-0.283124598750117
395.587562500003,106,4.08948085612841,-0.424660611255677,0.897047846332407,0.120950998353548,-1.76767036665255,-0.263542525827552,-0.0703036901849684
396.589050000002,106,4.59068690112464,-0.824397787545379,-0.124168936471807,-0.60233641904497,-1.91554829688089,-0.169583746071655,-0.702934975176588
397.590537500002,106,4.41405455074969,-1.65943513007655,0.417759548887746,-0.232998632450767,-1.60836669286122,0.924346752845586,-0.590662787851708
398.592025000002,106,3.62505974337325,-1.97703529999968,0.596390948839381,-0.880161837473837,-1.57725022083355,1.29211865124453,-0.497444021672374
399.593512500001,106,2.41513264999859,-1.89450833332516,0.569222083289146,-0.892663000051011,-1.1145862499981,0.774871812478549,-0.180526875045033
400.595000000003,106.617487499996,2.64784934706576,-1.65853377498588,-0.168739280005954,-0.136683661895696,-1.14290876458104,0.68239735938393,-0.311222672100894
401.596487500003,107,3.86008486912791,-1.56256803749916,-0.159612687499851,-0.132422550625125,-1.11447870624916,0.376578508749681,-0.234617750000087
402.597975000002,107.620462499995,4.05579684337397,-1.28291030000101,0.0041379281274765,-0.198293058749019,-1.06633041249918,0.313851587499776,-0.154962163749685
403.599462500002,108,3.74253706624964,-1.09465886666859,-0.265558706661309,-0.212782421667447,-1.0058025749934,-0.166123685012235,-0.148022034997447
404.600950000002,108,3.54441780156219,-1.06268612499758,-0.0364287905939833,-0.0566236624894345,-0.898382035411446,0.117386284895592,-0.147903964779728
405.602437500002,108,3.54877647162517,-1.1309800624993,-0.190776121253043,-0.200827086249396,-0.910717382482976,0.0235142581772382,-0.304196589939493
406.603925000003,107.373587500004,3.68642592106288,-0.962865203436047,0.0311133171952794,-0.437582080615062,-0.870630624064251,0.297296936119456,-0.0776471200551733
407.605412500003,107,4.08783411050143,-1.09954732499977,-0.0700411854996714,-0.231627947500583,-0.810242187491022,0.468794787513459,-0.25163232998555
408.606900000002,107,4.66073002743876,-0.999477176404022,0.028151847068932,-0.689859331244899,-0.991690353509408,0.0517913298079848,-0.608800922760964
409.608387500002,107,4.60368300749912,-0.937927487512143,-0.233234906270769,-0.305628350008634,-0.940351562494927,-0.13478779687655,-0.603947262472583
410.609875000002,107,4.14213747824925,-0.955063748750387,-0.157951659169558,-0.551141238155251,-0.972126283274247,-0.14426680689903,-1.24663789425314
411.611362500002,107,3.52939419337405,-1.06479109999844,0.273105864993419,-0.387608627499209,-1.0720739833388,-0.0393214573293345,-0.930688636676729
412.612850000003,107,2.82076917927922,-0.96301547812754,-0.0457674251996713,-0.760354083799372,-1.03843164220879,-0.0597404372012348,-1.88787861926238
413.614337500003,107,3.4050256449411,-0.854059941280042,-0.348992623737835,-0.716282983717725,-1.48459460080014,-0.278111415896039,0.232904579986846
414.615825000003,107.638312499996,4.79895353297195,-1.79941688125204,-1.43313409995969,-0.317519951230281,-1.52154553125893,0.488714975007762,-0.353600531222422
415.617312500002,108,5.26336801799978,-1.48750532002018,-0.697868435888277,-0.386130719993159,-1.1039874666818,1.14286160005569,-0.287273613334647
416.618800000002,108,5.15293899881231,-1.620697162465,-1.79982814412427,-1.18937074143695,-1.25764429833374,1.61695683881199,-0.399493447754061
417.620287500002,108,5.03261753937482,-1.46117851247579,-2.15697,-0.282657672473447,-1.33752517357435,1.67662473746681,-1.44313137491096
418.621775000001,108,4.90625485406236,-1.98438776770801,-1.81626228742682,-0.964136146763411,-1.04837117775185,0.572738095289319,-0.124137442839589
419.623262500003,108,4.99677725500059,-1.98136403125019,-1.28445645621577,-1.091259031277,-0.453615451379932,-0.693507454175398,-0.334843104196504
420.624750000003,107.352762500004,5.21808596275053,-1.98552748749995,-0.623302761239342,-0.747395193747227,-0.537811875470818,-0.413907884419545,-0.0189892769714309
421.626237500002,107,5.27737047833326,-1.64230298748443,-0.179532999640843,-0.884018758481196,-0.30653679166942,-0.899608311238492,-0.573240349142946
422.627725000002,107,5.2401819091666,-1.25306425312759,0.0914690436876462,-0.155366422501191,-0.247326443317347,-0.622536989662428,-0.259165849037758
423.629212500002,107,5.20299333999994,-0.583140531981912,0.0566495475997618,-0.239328276008752,-0.8303769962482,-0.632516835625088,-0.421566067502061
424.630700000002,107,5.17597634350959,-0.585511976545693,0.200993744541422,-0.108407156245289,-0.740794743056401,-0.60126739930554,-0.269635336805268
425.632187500003,107,5.15490119463456,-0.557166063091228,0.118503724029457,-0.243953665021502,-0.845815273094065,-0.618178961785663,-0.39146923785904
426.633675000003,107,5.13382604575956,-0.295357115803669,0.106554933321298,-0.0340568824817893,-1.14814020627657,-0.371979133729582,-0.286066972490086
427.635162500002,107,5.11275089688457,-0.295962667502657,0.88809682803317,-0.404179574021917,-1.63649867508794,-0.499238950002357,0.0115353089851427
428.636650000002,107.659137499995,5.09167574800958,-0.84157379541674,0.0811470177078218,-0.844191240416546,-1.96839121868131,-0.34485930535236,-0.276832522477939
429.638137500002,108,5.07060059913458,-1.03716000833949,-0.169816597908774,-0.955013891659364,-1.93850704687923,-0.310980376550715,-0.349769612515309
430.639625000002,108,5.04952545025959,-1.30415494158254,0.15141422765315,-1.01502376754653,-2.01581320416574,-0.194105886214236,-0.613431245042501
431.641112500003,107.336400000004,5.02845030138455,-1.84445869999769,0.623756710004449,-0.686216959993642,-1.65929139999654,0.159979800021368,-0.27422713999437
432.642600000003,107,5.00737515250956,-1.97820058750009,0.686911418087417,-1.0939457564828,-1.37190624375705,1.40497664380557,-0.45208365685529
433.644087500003,106.333425000004,4.98630000363457,-1.97732532500029,1.15121158334658,-0.465318993250634,-1.34419329998492,1.36518972814373,-0.354851875594828
434.645575000002,106.668062499995,4.96522485475957,-1.85977374998441,0.340337124966909,-1.07910326242431,-1.11513956249814,1.03147246560701,-0.212190008168298
435.647062500002,107,4.94414970588458,-1.83994327498414,0.350084818669333,-1.03462067495957,-1.12432125000159,0.894040894988426,-0.315869854997341
436.648550000002,107,4.92307455700958,-1.70553154374939,-0.186361797750562,-0.0474931760615856,-1.14921781249969,0.615682356249687,-0.309420897499623
437.650037500003,107,4.16824957255912,-1.1713144600069,0.0416906499414718,-0.248183653499328,-0.85994927525005,0.479090687750061,-0.0468145185000568
438.651525000003,107,3.0192955419032,-1.23092625625499,0.236521167399742,-0.137993030950222,-0.990687579381706,0.574556666180742,-0.372737171840755
439.653012500003,107,3.62745475375365,-1.18361050831262,-0.132947480651185,-0.436168225069705,-1.04773875000021,0.159074475007033,-0.245650150001489
440.654500000002,107,5.16715916228445,-0.962844367493727,-0.0425398667546444,-0.385630940621545,-0.966497743125942,0.0482817192455991,-0.372325788699031
441.655987500002,106.321525000005,4.62107673130956,-0.985376399998449,-0.0817850524071218,-0.329077482493627,-0.805139073755143,0.152912179398278,-0.19707501127516
442.657475000002,106,2.98364216509129,-1.03111402906897,0.0726676125325231,-0.265170493444163,-0.962692254252294,0.263108361808979,-0.395283931748527
443.658962500003,106,3.46474627287978,-1.12594145832695,-0.113993116633428,-0.228931154548735,-0.870821042502856,0.285220131247349,-0.211302853751313
444.660450000003,106,5.03980319016058,-0.912710740624351,0.0397163112527348,-0.445041143753287,-0.946708048121495,0.158922224942518,-0.743386834995589
445.661937500003,106,4.33590401149541,-1.02015967249917,-0.0597701729284413,-0.372970878125668,-1.0090039916714,0.284006225828566,-0.141824118331037
446.663425000002,106,4.24560116818925,-0.881428460621278,0.0755539378747872,-0.769065958764587,-0.962334099377951,-0.101610204843381,-0.269895103741831
447.664912500002,106,5.05373648400152,-0.90105384666178,-0.195525818661138,-1.00456518669045,-0.773457721980718,-0.960369880018988,-1.09027616001609
448.666400000002,106,4.52467085999809,-0.966284417710008,-0.231439123535998,-0.842348580849104,-1.03628686686929,-0.0331001058743117,-0.748096147513018
449.667887500002,106,3.32769299999843,-1.00962166666861,-0.0742730052128387,-0.321727593764424,-1.12493343749275,-0.322847062456022,-0.751535343744973
450.669375000003,106,3.65257342987805,-0.884807894631976,-0.62425585620499,-1.19921892809936,-1.04412626093832,-0.108943558017271,-0.996473572805584
451.670862500003,106,4.72747997850274,-1.26237179996884,-1.00855431995401,-0.660038109981827,-1.00625595001108,-0.673441979997713,-0.984756613752682
452.672350000003,106,5.25262609518808,-1.20808509281763,-1.08544350066461,-1.89551056998368,-1.00482411659556,-0.542703205631957,-1.61142049668656
453.673837500002,106,5.51045404462551,-0.753113741643697,-0.52818627040222,-0.3836794483232,-1.0795243416627,-0.311124868346253,-0.649780741665692
454.675325000002,106,4.66920279124769,-1.07142458749903,-0.202692084061466,-0.241233910159923,-1.11038202500127,0.0265539278408356,-0.743600078915675
455.676812500002,106,4.58869335400075,-0.885943528750715,-0.279536622497991,-0.530890106245931,-0.909304589999457,-0.12624540524833,-0.574480884997778
456.678300000003,106,5.12186526925156,-0.993055959842797,-0.31911185655777,-0.663807993141281,-0.94901280862532,0.00337908281348274,-0.713317930753373
457.679787500003,106,5.40936941950045,-1.12977813750658,0.220753286916201,-0.273991861223095,-1.21662982499999,-0.136613683083809,-0.476550111666785
458.681275000003,106,5.5814049422504,-1.24639281858376,-0.24364220085577,-0.55289558995009,-0.966790543244934,-0.152238735749576,-0.819734415504978
459.682762500002,106.705249999995,5.74402860625033,-1.28490279999284,-0.344441884388204,-0.0679320240074238,-1.07582319791502,-0.210484201244896,-1.50596171665923
460.684250000002,107.706737499995,5.90228866843778,-1.12424287596514,-0.737346150671409,-0.934330429305158,-0.681542968117198,-1.19416144672129,-1.41377281131174
461.685737500002,108,5.93273862512496,-0.292665152543036,-0.849365740012511,-0.468752357509356,-0.52782670249234,-1.73909463751469,-0.361783816242599
462.687225000003,108,5.90474204206242,-1.9257198499931,-1.7517158250389,-0.255031073224359,-0.706289384364356,-1.95552098569175,-0.259454945648408
463.688712500003,108,4.81136654299571,-1.73568167976806,-1.57986012797161,-0.95078829998957,-1.74358414999022,0.334250659991072,1.16149624717352
464.690200000003,107.287312500004,3.23749388468366,-1.93419803124133,-1.68764696656803,-0.787805654594196,-1.05572405357215,1.33952151785249,0.605566274105094
465.691687500002,107,3.23838312312651,-1.87657284996409,1.10900742467499,-0.26421754753155,-1.39489551875548,-0.116804788804984,-0.170102670068031
466.693175000002,106.284337500005,3.93969978218881,-1.59802513121785,-1.98700468751819,-0.365825352966538,-0.799591758776579,0.779023331308418,-0.456160221250721
467.694662500002,106,4.39152672350054,-1.39127657498081,-2.14557275000103,-0.348136982477001,-0.961444217534008,0.745442553405893,-0.622854136702234
468.696150000003,106,4.73392528487606,-1.59123528126905,-2.13457384373665,-0.128646708292332,-1.52630668331188,1.85146288143349,-1.03462749539726
469.697637500003,106,4.97756195312557,-1.78956493751379,-2.15706012500014,-0.291046662506376,-1.82111980618548,1.99198474994662,-0.538268068721095
470.699125000003,106,5.17848538281301,-1.85794370627321,-2.10092662498833,-0.596492631894873,-1.85510903753564,1.76307346247648,-0.589354728721626
471.700612500003,106.723099999996,5.31424691150024,-1.92998155004491,-2.15962740000037,-0.065597797454466,-1.33433166666974,1.82478310000439,-0.754235586674968
472.702100000002,107,5.42222228631271,-1.97880345625358,-1.65709363850389,-1.40765715796009,-1.12811921873725,1.31913605920964,-0.0417466730392496
473.703587500002,107,4.83321339674853,-1.9826286375001,-1.35168599989894,-0.884634165010539,-0.73278813964884,0.0601140789659027,0.273173243630712
474.705075000003,107,4.8389361296887,-1.98375125000008,-0.979648187528189,-1.23427332819568,-0.413004890599598,-0.33761282039467,0.0614448436688482
475.706562500003,107,5.2152100057511,-1.98385641666682,-0.659524543324846,-0.688650973347561,-0.393520009989412,-0.547871725035047,-0.136061060018707
476.708050000003,107.730537499996,5.32136295556249,-1.34465530126977,0.0218540830633805,-0.570900790008524,-0.378221179791952,-0.700449943534621,-0.250867966243221
477.709537500003,108,5.31637054037499,-1.13846206249679,0.0978423660010452,-0.174327684997201,-0.300265941241059,-0.732329344985557,-0.27315615501218
478.711025000002,108,5.37753491081268,-0.909006997612869,0.165323373645171,-0.190340146409584,-0.347902648751986,-0.58016529624779,-0.410390684998025
479.712512500002,108,5.46553061000015,-0.794400799996775,0.0533195799996443,-0.0361956419990312,-0.432916600040539,-0.522673399979631,-0.554759800064512
480.714000000002,108,5.08283212499916,-0.415172993751783,0.161550029999309,-0.0892636416242037,-0.656340984194348,-0.576268367504931,-0.531458005449017
481.715487500003,108,4.51198424999829,-0.124477772500828,0.149229387358669,-0.166679317494541,-1.2204048083359,-0.349209745832562,-0.268899565830886
482.716975000003,108,4.42334325881277,-0.355587241658656,1.12222314260511,-0.0405726254419814,-1.41888557496894,-0.32242963060487,-0.0823561060004675
483.718462500003,108,4.52465874175025,-0.355458322465125,1.21083895760771,-0.228970152427627,-1.94724296000055,-0.427451128498939,-0.16297006049867
484.719950000002,108,4.98006657125127,-0.649378296952625,0.190596396967771,-0.93103238764283,-1.89460818750881,-0.321400656243687,-0.307932337510612
485.721437500002,108.743924999995,5.5729271415011,-0.956278002499962,-0.583033884996733,-0.277822175003366,-2.01647536249884,-0.514899975653595,-0.0291390982404698
486.722925000002,109,5.85266765275025,-1.37340240297015,0.250254453684095,-1.34620346227321,-1.91153524999763,-0.448174946252057,-0.090653808680588
487.724412500003,109,6.01264526600049,-1.65326275275827,0.0989736716654692,-1.02057596100633,-1.84376674999269,0.133186940065661,-0.580081300001095
488.725900000003,109,5.72865464474874,-1.97771,1.20437893749967,-0.98365643296945,-1.53363548124867,1.23630279791976,-0.619039147704983
489.727387500003,109,5.27736434749887,-1.93601860000228,0.758533209978399,-1.10553322499617,-1.67073846874348,0.854215837561673,-0.544565884372273
490.728875000003,109.751362499996,5.24169778631276,-1.87070213958664,0.467570049366174,-0.75568558188727,-1.80966944584156,0.2556450164269,-0.273385627074072
491.730362500002,110,5.36031897325023,-1.80403010000757,0.418157223229756,-0.815182143763046,-1.58214272500037,1.3160483499936,-0.374741505004874
492.731850000002,110,5.55893994806288,-1.82151063127085,0.388481710145333,-1.15177428671223,-1.94177831749938,-0.280447308999873,-0.105563195124865
493.733337500003,110,5.78681340637572,-1.41766038749327,0.519835218960763,-0.595305613510915,-1.89848104166883,-0.232552450832595,-0.223592513334734
494.734825000003,110.757312499996,5.28200315812278,-1.50331543125404,1.02585058190078,-0.542229424997352,-1.57854264929671,0.872105485461927,-0.467562707658538
495.736312500003,111,4.51332478066466,-1.65037008001347,0.546816316006535,-0.185602147993247,-1.96783456666628,-0.414495506667019,-0.364374180002903
496.737800000003,111.760287499996,3.74464640320655,-1.38730446996871,-0.193606925030941,-0.20440413750595,-2.01525235833432,-0.40285276873734,-0.283829827934075
497.739287500002,111.238225000005,4.52548536662769,-1.67368047497559,0.789351567537093,-0.649606659958466,-1.80978312499475,-0.111891997457945,-0.00919907342975394
498.740775000002,111,5.85167013643981,-1.75060473124074,0.81400086563747,-0.725274438116331,-1.93602062500315,-0.293596772498858,-0.134835237506562
499.742262500004,111,5.966527874999,-1.7468899999644,0.510486437459393,-0.344701062475038,-1.89387687498934,-0.17622093750491,-0.42668868750377
500.743750000003,111,5.74184353381191,-1.9540045614668,0.63103253666846,-1.78300464067631,-1.69071770000084,0.6810074124496,-0.574071036566566
501.745237500003,111,5.54474578637447,-1.81309392499858,0.819690576621425,-1.46028121500215,-1.58365186500744,1.74383086001032,-0.377167674989829
502.746725000003,111,5.20828223762408,-1.55837390932628,0.885101754082829,-0.83626478425185,-1.75400520833273,0.539599451754082,-0.217383902834648
503.748212500002,110.229300000005,4.82464242099919,-1.97729712000001,0.663101786914268,-1.61070477998597,-1.43579029999515,1.2896620400493,-0.344144950006565
504.749700000002,110,4.79080808750015,-1.97614779687511,1.15250044684519,-1.39017504694073,-1.32524093747523,1.61489104569104,-0.262589574961225
505.751187500004,109.226325000003,4.76447211087479,-1.97575557499997,1.02709907499485,-0.417410811659705,-1.25239294998661,1.11558092435533,-0.132639543999455
506.752675000003,109,4.70208444706231,-1.78905785000548,0.189378553746024,-0.41822018503294,-1.13052695781065,0.929892288292196,-0.582765769364998
507.754162500003,109,4.51434956124936,-1.71962310000934,-0.105795415084031,0.00770652919434531,-1.23733499999834,0.503527472501476,-0.304976964001529
508.755650000003,109,4.28583515093693,-1.37046787917909,0.0544287761304361,-0.414980660429023,-1.07358652436134,0.594015486832424,-0.2959280307258
509.757137500003,109,5.97023919563007,-1.22166439994761,-0.0422220762396787,-0.500754056220417,-0.900038925004131,0.224472687501197,-1.27600053247828e-05
510.758625000002,109,8.26703560581691,-1.09009955957036,-0.0997388488793476,-0.729459352546816,-0.997203547787338,0.059988089860536,-0.208611021900305
511.760112500002,109,6.83197297599574,-1.03635910333209,0.0114975886584458,-0.328970766685134,-0.891270839995458,0.294179640010198,-0.170235725997696
512.761600000003,109,4.22145559899175,-0.973812270867156,-0.041007732896458,-0.55868651275528,-0.98750129374403,0.257952019389183,-0.160449709371454
513.763087500003,108.214425000004,3.79340226800071,-1.03672540000281,-0.116183664995008,-0.172152205016671,-0.873366881245012,0.44841312033165,-0.328450995620202
514.764575000003,108,4.04161093000064,-0.908610190625835,0.00217122230867271,-0.687632028173624,-1.01848024999982,0.234842312512103,-0.209928103126899
515.766062500003,108,4.38995416500087,-1.00353736625086,-0.0380713154612658,-0.359111499973647,-1.13155362900607,-0.13714225872129,-0.16343131599311
516.767550000002,108,4.45699140593745,-0.902947627497139,-0.169864008004568,-0.623465999997155,-1.00890624208074,-0.178095906255206,-0.509563930035592
517.769037500002,108,4.42977598312495,-0.987283536672747,-0.26896658666777,-1.0858665199538,-1.00724221444143,-0.254246302790665,-1.34526095003146
518.770525000004,108,4.4713044133752,-1.03982618374846,-0.20869371059284,-0.796660140975092,-1.13756530626566,-0.157110461442083,-1.30675687132758
519.772012500003,108,4.53326644500018,-1.14936512501308,-0.180777218789273,-0.718885937518239,-1.17161312500426,-0.258676125000818,-1.40877687496058
520.773500000003,108,4.64499817387534,-0.944492259590505,-0.156881568828868,-0.672115367484385,-1.14868490937795,-0.314085350238012,-0.893789590049695
521.774987500003,108,4.53764605237458,-1.73589019997188,-1.17383000869935,-0.30705492539775,-1.21479686249924,-0.192474404502891,-1.33919131747767
522.776475000002,108,4.36259104481213,-1.13807806091211,-0.530749663559187,-0.909879699099777,-1.08839568280773,0.0358087826736711,-1.097698600068
523.777962500002,107.199550000005,4.2803685322499,-0.887966190001972,-0.994224341236298,-1.58543374623186,-0.754390858607326,-1.03698900414159,-1.728511716855
524.779450000004,106.198062500003,4.22459068593731,-0.938577924974002,-0.663478678090887,-1.27616139682143,-0.533793779700747,-2.03054065625378,-0.511514615620299
525.780937500003,106,4.55096877025132,-0.365394659377973,0.0666948674950921,0.136487429990188,-1.3751255250177,1.05888594245015,0.682679207518774
526.782425000003,106,4.9843424561262,-1.37767008242685,-1.59929079703586,-0.735042655639831,-1.18618676752271,-0.541792034781512,-0.0140183786799925
527.783912500003,106,4.66413269599869,-1.32819383996913,-0.987787051966348,0.118922056002532,-1.58270264999515,0.644614930951914,0.0679723399382595
528.785400000002,106,4.13658914049884,-1.38602911873941,-0.204254777777432,0.498087228463445,-1.43298300922002,1.75447198906355,-1.04335163281251
529.786887500002,106,4.22454177312548,-1.90525481246163,0.721416623443983,-0.125988662542074,-1.48258392500714,1.87254435715819,-1.74197864644431
530.788375000004,106,4.47887453118837,-1.39753655418284,-0.275389952169503,-1.90798443827946,-1.24477968594553,1.6618411122978,-0.40225409829251
531.789862500003,106,3.79891178199708,-1.50236283334855,-2.02254361667756,-0.837610718323487,-1.40434419754877,1.52951380318029,-1.08922398745365
532.791350000003,106,4.06924308350167,-1.77110077084061,-0.514153789494166,-0.646284962503516,-1.16698784169533,1.47981736130575,-0.741517861687193
533.792837500003,106.815324999996,4.65495303300151,-1.76227615000243,-2.06119521249771,-0.781364043509741,-1.70617273336996,2.00102617501276,-1.1100553983801
534.794325000003,107,4.73242926656238,-1.78524892501779,-2.11140044996175,-0.700229591272005,-1.79032462506084,1.92922727087855,-1.40254177720725
535.795812500002,107,4.67855424649989,-1.44776560002116,-2.15697,-0.342879999949978,-1.68634269994984,1.9803122249446,-0.853316144874158
536.797300000004,107,4.41996463462391,-1.60279704580177,-2.15701240833307,-0.217342962713411,-1.75054333750049,2.02604683124999,-0.528336943755984
537.798787500004,107,4.10942672891566,-1.76370425834704,-1.98919010415769,-0.582597524071478,-1.14911869330099,1.57389357081056,-0.833530109141507
538.800275000003,107,3.79888882320742,-1.81664281583054,-2.0403518983365,-1.42917759475656,-0.909962777247955,0.325879714847421,-0.0146229780615344
539.801762500003,107,4.24874485250169,-1.95383297499863,-1.68475522497757,-1.4642725550275,-1.60802200000611,1.82267374997065,-0.174206424844899
540.803250000003,107,4.88626175037651,-1.98403854999999,-1.50377746751886,-1.26432576122239,-0.924470064352365,0.330141899622812,0.0487113513942731
541.804737500002,107,5.58285881625148,-1.98152588833324,-1.00296935880015,-2.15130671555144,-1.10608308167447,0.686993877514072,0.801571535837398
542.806225000002,107,5.15233772162374,-1.98323190000003,-0.801723137493463,-0.786380424056003,-0.529730437399808,-0.272089728646764,-0.100375115030406
543.807712500004,107.830199999997,4.44798154799766,-1.98468210000011,-1.13936389991489,-1.34146335340734,-0.499041940014961,0.0165553050439924,0.20481046003988
544.809200000003,108,4.68943016000141,-1.98461249999997,-1.10219281250084,-0.664198500007579,-1.22184256247161,0.937082468716519,0.0585977843876603
545.810687500003,108,5.15347940800128,-1.98289029375,-0.653212116286017,-0.811520196285722,-0.65057012618623,0.273686187804096,0.0791313873561114
546.812175000003,108,4.94707889262411,-1.98362948333327,-1.08756617799307,-1.7245836103904,-0.627627937456211,-0.0693690432149389,0.0295502974466785
547.813662500002,108,4.3912424082487,-1.98539452499976,-0.926710722406431,-0.825815419987445,-0.552864611002198,-0.342290975994498,-0.0905632029961989
548.815150000002,107.162362500005,3.79090573381137,-1.9775230437496,-0.305107332491684,-0.610241041240547,-0.274716796873156,-0.746974156863836,-0.174204608128986
549.816637500004,107,4.32303404687768,-1.62102009376198,-0.055880042821815,-0.501949806249778,-0.287236328123661,-0.881716040619073,-0.340928637507806
550.818125000003,107,5.10897639968996,-1.37261292654927,0.125582251251667,-0.23898730500345,-0.239896802077029,-0.794824153123361,-0.654135160386292
551.819612500003,107,4.86419602799866,-0.847972817991682,0.169000063998125,-0.0620434965981146,-0.424535684001039,-0.647401516002274,-0.308544839994496
552.821100000003,107.843587499996,4.6522145801246,-1.0000765231047,0.135839354157132,-0.323553296234949,-0.277014123543239,-0.675065563118951,-0.522139372925619
553.822587500003,108,4.49661346724965,-0.632551498295497,0.134884254170156,-0.332297836711015,-0.474157667498906,-0.509282580008445,-0.345282749995015
554.824075000002,108,4.29663836999959,-0.534165928101013,0.200797471884268,-0.0395855918807091,-0.637465196865265,-0.538183280208616,-0.300961890848913
555.825562500004,108,4.08720730399927,-0.427415549969834,0.193085385008323,-0.184668730041659,-0.707674150032694,-0.665476661242766,-0.407075472481428
556.827050000004,108,4.26073455587582,-0.615387249334212,0.22865874191252,-0.059214653551216,-0.673266418265953,-0.533686503673284,-0.764331707203067
557.828537500003,108,4.51420102725074,-0.510135090010319,0.278711538741247,-0.0935475363790932,-0.772586873890921,-0.564865588472237,-0.565508967913913
558.830025000003,108,4.45804550412468,-0.400606604634162,0.131853355347038,-0.191822767827106,-0.739586906240523,-0.57186762812444,-0.125028281128343
559.831512500003,107.146000000004,4.33859808999972,-0.531017333342428,0.236095599991728,-0.0470289933314265,-0.891875999996191,-0.529460399999214,-0.276970600001061
560.833000000002,107,3.82533933487378,-0.213489437990694,0.234330869496687,-0.0747989063529562,-1.37318322916916,-0.322070485000227,-0.0721386133443245
561.834487500004,107,4.16014050150186,-0.401049432523763,0.214485482495072,-0.122964894005204,-0.958884740607095,-0.546658303753943,-0.29972387313573
562.835975000004,107.858462499997,4.67845034225171,-0.238167025000771,0.196673685750649,-0.143920608000174,-0.658447128441393,-0.602290718436931,-0.144548882499174
563.837462500003,108,3.64192575849596,-0.302894026254831,0.165647507125429,-0.105088381121452,-0.789180722514743,-0.579124881249942,-0.201655363991573
564.838950000003,108,3.9482998731267,-0.375324290621668,0.167939459377543,-0.071980042501681,-0.614705717728057,-0.527326245830266,-0.177823353928478
565.840437500003,108,4.56973288175152,-0.530070047497797,0.0993104987515178,-0.273342047497786,-0.658760489506377,-0.606946857001079,-0.214187909996464
566.841925000002,108,4.25119109324893,-0.416126838955117,0.151094328500233,-0.104711488583881,-0.765847989576053,-0.627659708747695,-0.167187709585763
567.843412500004,108.865899999997,4.08531137799961,-0.407583905020727,0.164302467975884,-0.0909732108612982,-0.748442810017048,-0.676641131664805,-0.231995606653599
568.844900000004,109,3.98037551774964,-0.359808079690958,0.106937083875471,-0.227309799371985,-0.745197696235402,-0.740555062915058,-0.19628957167067
569.846387500003,109,4.19991294125087,-0.358691958333978,0.336517927084125,-0.144683671876415,-1.1994453125301,-0.519762281242965,-0.230936787481506
570.847875000003,108.129637500004,4.47823633237579,-0.356522123744546,0.208664804003363,-0.202087950750554,-0.932809645309849,-0.518915640938932,-0.332823478752088
571.849362500003,108,4.28872835949931,-0.309544215000832,0.358301637501232,-0.185698797500145,-0.965503614164289,-0.543059395000468,-0.173877489000565
572.850850000003,108,4.01639386362439,-0.597130496249314,0.0424751340419434,0.0197731091251938,-0.981883870320035,-0.496202607497622,-0.100592998870371
573.852337500002,108,4.17025038562545,-0.4880955256051,0.0911822456976157,-0.341991810004761,-0.897632812509692,-0.620954626248405,-0.28460875124744
574.853825000004,108,4.39781338281329,-0.670308741668034,0.12832158541644,-0.163441094793063,-0.565083969995556,-0.610305044376635,-0.436722232509065
575.855312500003,108,4.28758726399946,-0.371894547995714,0.262290963996969,-0.0635086772003603,-0.740187360005646,-0.525737799998466,-0.114697847994154
576.856800000003,108,4.51132885812584,-0.516056228748383,0.145167361382077,0.0546250070012456,-0.840370140328913,-0.600258440932885,-0.207058190810985
577.858287500003,108.880774999996,4.80030807625076,-0.5412840595733,-0.113066152771475,0.0192110456694048,-0.912988470851479,-0.601575382493985,-0.183197348909756
578.859775000003,109,4.30431542662354,-0.325626641639017,0.269165616384106,-0.150132735876544,-1.13431151123734,-0.442186500007742,-0.0904317893269121
579.861262500002,109,3.68051890749872,-0.465007400009555,0.998630558402902,-0.0127853327859096,-1.57379183336509,-0.413037595833768,-0.242511058322642
580.862750000004,109,4.52180372550384,-0.436618319999222,1.10492042498811,-0.313057875088164,-1.67243585002243,-0.439355182504398,-0.0997402831631339
581.864237500004,109,4.63563520699988,-1.17853355376749,-0.815303600046501,-0.540966088752857,-2.0046563208349,-0.513731471670242,-0.116545121231475
582.865725000003,108.111787500004,4.59890064549989,-1.55869584376455,0.592330624229628,-0.679528154569099,-1.72750507917059,0.0664120845397292,-0.49751358831812
583.867212500003,108,4.16115244649865,-1.93387227499839,0.871161852466629,-1.10090206000622,-1.48462499999591,0.376408387702089,-0.266038735001341
584.868700000003,108,3.66210621781129,-1.97747112500006,0.958670059391261,-0.904805471821935,-1.0456609999992,0.832724606187995,-0.160625837528881
585.870187500002,108,3.18698746787399,-1.60998199442788,-0.103872238930998,-0.602278843271895,-1.35859394582522,1.36160425002143,-0.850823520074996
586.871675000004,108.894162499997,2.71543207106077,-1.88893267813855,0.513734534306388,-0.898747776862585,-1.01573952375948,0.889007708720043,-0.310103533758641
587.873162500004,109,3.96003181250505,-1.52436479996124,0.0974958800103887,-0.386059837393006,-1.07245312500084,0.561162788051494,-0.852530075020702
588.874650000003,109,5.45350004687962,-1.16330257499586,0.0835213933477342,-0.244631612088586,-0.853372062476168,0.0841721062432039,-0.112354305047929
589.876137500003,109.898624999996,5.7948046287505,-1.1702741562496,-0.00253476656235255,-0.026905563094109,-0.943226465635977,0.297149521882018,-0.238586856247431
590.877625000003,110,5.6089408807494,-0.96895633187278,-0.0495380766197719,-0.177673868739031,-0.930945555180203,0.12439233036688,-0.405560216147592
591.879112500003,110,5.37232944399947,-1.04247882142889,-0.0907580232824476,-1.03567128570129,-0.906437820007962,0.0282776199732529,-0.109927892001229
592.880600000004,110.903087499997,5.3911176220002,-1.01400631833311,-0.0621275199924313,-0.805617157014067,-0.8944283197468,0.317557103493733,-0.0358457087002178
593.882087500004,111,5.44447687600019,-0.919396151249993,-0.0339654609997529,-0.312392282499972,-1.01075048285547,0.00965511143973025,-0.134197081310321
594.883575000003,111,5.26871114999935,-0.992385570312553,0.121646624999934,-0.1030697882812,-0.880562621093527,0.446566034766336,-0.190522751562538
595.885062500003,111.907549999996,5.0628053199994,-0.988920343571819,-0.239422531428076,-0.403589776426358,-1.04814796249913,-0.0713896655036943,-0.134865823755276
596.886550000003,112,5.04879551337503,-0.939071031355387,0.0161071724686645,-0.531241307298529,-1.02863161092746,-0.179504638646834,-0.445798761567727
597.888037500003,112.910524999996,5.05930111725002,-0.959640941875061,-0.179837936876812,-0.459465584377774,-0.866079016878511,-0.181954044061337,-0.529441686254748
598.889525000004,113,4.45631788449739,-0.940380759999532,-0.352139387678147,-0.642492729988455,-1.01349410218532,-0.251425889375564,-0.480052834688062
599.891012500004,113,4.60604480000089,-0.957486724996755,-0.169567672996365,-0.98414095998061,-0.865729175000025,-0.0279820116255518,-0.823643974997195
600.892500000004,113,4.85697750800082,-1.04438918937158,-0.298322054849972,-0.57436933001622,-1.12150935468769,-0.228260910984556,-0.991052174375814
601.893987500003,113.916474999996,4.583197684999,-1.01020400999756,-0.146064408538253,-0.350711342507768,-0.953535587490097,-0.267884398140881,-0.593380182476248
602.895475000003,113.082037500004,4.24729877749909,-1.09375593749677,-0.271650739985549,-0.310991749175643,-0.988189412492424,-0.127113180338079,-0.377131155004366
603.896962500003,113,4.48334864775073,-1.00400358333336,-0.161565166126511,-0.600883961620114,-1.05798646250838,-0.00961060441919351,-0.800240729979911
604.898450000002,113,4.78499167531314,-1.08512681249983,-0.173369253150754,-0.679931731229003,-1.13427637222756,-0.37547693931919,-0.987766841650504
605.899937500004,112.077575000003,4.67297527749942,-1.01904197247926,0.130414408212481,-0.353419074187119,-1.116639460845,-0.488193274995384,-0.636408894951605
606.901425000004,112,4.51504069874947,-1.01756716250154,0.0677505925427794,-0.245935831234572,-1.0869677249978,-0.0585597146484523,-0.571344048721648
607.902912500003,112,4.51059184400004,-0.957905580004074,0.187133340033927,-0.30510894000688,-1.18189143333134,-0.448750639981448,-0.657631960001566
608.904400000003,112,4.52261970887503,-1.09487104674944,-0.135930150374938,-0.567448316000519,-1.25945311249992,-0.22993026250089,-0.753794773749546
609.905887500003,112,4.66589029375039,-1.1289044062508,-0.343093443780871,-0.490753634351248,-1.07510212499215,-0.188733999985684,-0.957134281281858
610.907375000003,112,4.82277331062535,-0.503625794967198,-1.29725172689797,-1.1657960535185,-0.789663379239809,-0.953972307586261,-1.39101775910864
611.908862500004,112,4.30032584699779,-1.29525524984107,-0.761383759500802,-0.290728239913416,-0.907872707617394,-0.609933357218485,-0.536899067547681
612.910350000004,112,4.14662077249962,-0.557135938780695,-0.397662421222398,-0.270081429947566,-0.920513633520418,-1.15519035771648,-0.788099070499713
613.911837500003,112,4.03585625499965,-0.951850969401189,-1.19154525689089,-0.846451825617781,-1.13123882922382,-0.408438218589261,1.1831306918146
614.913325000003,112,4.51024697906402,-1.21981164546138,-1.22133660174716,-0.336485751289649,-1.65490357392802,-0.197691120516732,0.211419427030535
615.914812500003,112,5.04007893350137,-1.72071680998624,-1.23191339994971,-0.749345599975642,-1.04321899110563,1.28848711110624,-0.448222696651155
616.916300000003,112,4.55700848037367,-1.91356741251586,-2.14914713750293,-0.298792766276343,-1.34297346435952,0.259865974967305,-0.323689267473322
617.917787500004,112,3.9582739456227,-1.85140718746833,0.282341837064623,0.119019056120169,-1.81796880773969,1.0574150813113,0.643457912751149
618.919275000004,112,3.35745655718537,-1.82801169689122,0.990521193408612,-1.37050701121821,-1.49119901718005,1.71928790311445,-0.411625537497909
619.920762500004,112,4.1861082237531,-1.45338604167174,-2.15660520833335,-0.985099874980009,-0.720572705369567,0.224834919642041,-0.617433392841088
620.922250000003,111.055262500004,5.13757643056532,-1.587496256264,-1.90876853991094,0.236180393077335,-1.0188543187691,0.571863678705222,-0.518059597532005
621.923737500003,111,4.85345753724897,-1.530842224999,-2.15637517499997,-0.266457750000341,-1.30441155000513,1.90904127500219,-0.49561698626152
622.925225000003,111,4.46749426962408,-1.68542148127214,-2.11592647706511,-0.331688530012141,-1.53346933749415,1.95145464686014,-0.685251153781041
623.926712500004,111,5.34294552000382,-1.98362839999997,-1.78904490001865,-0.919478199997469,-0.957792720012968,0.705665000066826,-0.0169497200553603
624.928200000004,111,5.40461296874997,-1.98306029687503,-1.56252395624224,-0.807020584386949,-0.337300670833964,-1.03969042083285,-0.273023264583588
625.929687500004,111.952174999997,5.39573978949997,-1.98393,-1.13613764996999,-0.972143977507631,-0.253476889973994,-0.489863850063043,-0.198866674272537
626.931175000003,112,5.07401896456145,-1.96928226874931,-0.918914844633067,-2.06447899383561,-0.175938608757229,-0.969179777916376,-0.175348018964074
627.932662500003,112,4.72921182574905,-1.85682045553416,-0.702156917195974,-2.67370367238669,-0.475833473721503,-0.712450547540087,0.142551577471867
628.934150000003,112,4.49345791574943,-1.57872417489384,-0.185030666325373,-0.415702363702949,-0.194581017820675,-0.800731273754249,-0.205927364119828
629.935637500004,111.041875000003,4.479432559375,-1.64177335001484,-0.0328152412564798,-0.125268330831487,-0.264781324475891,-0.751674922398958,-0.47761784219634
630.937125000004,110.040387500003,4.4801085634375,-1.26263324783707,-0.252773066356221,-0.662926360294496,-0.27592446950218,-0.768405762504304,-0.32839517125144
631.938612500004,110,4.3707082584996,-1.21422975499868,0.0585401009169404,-0.364072588334268,-0.253281240000442,-0.671701539990486,-0.272425850006256
632.940100000003,110,4.25412009118713,-0.926935944379587,0.0245613888740548,-0.339726104371684,-0.408029218429792,-0.638711019064184,-0.287493863751614
633.941587500003,110,4.0819612294995,-1.04829378571004,0.0293746372840171,-0.241046255357552,-0.304295999067309,-0.611027704681729,-0.412375864389823
634.943075000003,110,3.90636041124955,-1.13756165374243,0.0748056469342635,-0.189584543129999,-0.282561515629016,-0.584562574994714,-0.250673567201313
635.944562500003,110,4.45229300700134,-0.976804458728992,0.11552623126161,-0.211715016247613,-0.345199902502846,-0.556093520832015,-0.259654411668409
636.946050000004,110,4.33963687493692,-1.18580539581629,0.0631968299130676,-0.39600491167632,-0.279743564374125,-0.692685217501672,-0.30788625124647
637.947537500004,110,4.18707527662446,-0.885979973771538,0.0695445535058745,-0.169094773746774,-0.330622640013178,-0.646416454999362,-0.27999500750429
638.949025000004,110,4.65018913993911,-0.601514561271149,0.0666752387389906,-0.0828839356007106,-0.520825849352996,-0.611456534371897,-0.706930723785266
639.950512500003,110,5.14632104000146,-0.630534000020085,0.0785898249959744,-0.110543800003361,-0.581015624993278,-0.629973974998251,-0.357318350000205
640.952000000003,110.974487499996,4.67630312606112,-0.397626929981946,0.197263198764401,-0.181168141252188,-0.822129536545785,-0.61094663265774,-0.392169198746646
641.953487500003,111,4.15764777212377,-0.468175530003828,0.20405592074633,-0.185752412499285,-0.771215144595932,-0.678386449577596,-0.418895548738549
642.954975000004,110.022537500003,4.53767501856415,-0.607389068796298,0.0808600656055205,-0.195782809961089,-0.507087289992493,-0.673474606249921,-0.239337261251408
643.956462500004,110,4.96000730475153,-0.581399915492459,0.148074571551861,-0.433786986001023,-0.522616969987731,-0.593223777504975,-0.343518489998241
644.957950000004,110,5.0059474625001,-0.448224578131271,0.203422453122098,-0.362397843745378,-0.460449041664239,-0.583204447916916,-0.429679078123377
645.959437500003,110.981924999996,5.00013485674998,-0.523955055002697,0.358988720000927,-0.0675054304998616,-0.646512687499176,-0.568006673749518,-0.252107250000237
646.960925000003,111,4.99283401287498,-0.739504428746603,0.0598271551595393,-0.105373359060597,-0.515203466250977,-0.587846255207509,-0.275869049581903
647.962412500003,111,4.68543254299921,-0.791454007489618,0.129073760247135,-0.130298805501483,-0.440520500010232,-0.616873799996745,-0.286366185002011
648.963900000004,111.986387499997,4.36632858087373,-1.10971705810675,0.00323306234001238,-0.309869253418693,-0.23361454437398,-0.743063221875572,-0.291135391871879
649.965387500004,112,4.72180363750141,-0.899974231245945,0.0458762601237596,-0.0557472774995551,-0.436191543756229,-0.621259656248036,-0.293481200001606
650.966875000004,112,5.1014274892513,-0.946042885497997,0.100654855669233,-0.524835045636141,-0.394696795764405,-0.70574308324644,-0.636888989978326
651.968362500003,112,5.22606322825036,-1.0188378068748,0.0806658478750242,-0.306702483750127,-0.385078869164898,-0.6545813241672,-0.310748991666512
652.969850000003,112,5.34238099393783,-0.966348077483235,0.119430016259648,-0.220518808743934,-0.334449536454119,-0.692207235006744,-0.679569826276501
653.971337500003,112,5.36360998000005,-1.30422284163504,0.0867097268094449,-0.323619509998967,-0.298122729166783,-0.733001511666968,-0.255817922499962
654.972825000004,112,5.38203735000007,-1.21504981247987,-0.00489253874369252,-0.256834181246194,-0.261297006248621,-0.763267814061447,-0.514124228130697
655.974312500004,112.996799999997,5.55946157200069,-1.32394039998827,0.0263304400052351,-0.310912959987639,-0.189499840001933,-0.728616879975647,-0.34268151999218
656.975800000004,113,5.69310115831296,-1.51782423738956,-0.0658569562134517,-0.206490384577059,-0.303230565666824,-0.809418742504962,-0.641751554973321
657.977287500004,112.000225000003,5.82555288762543,-1.38440045832076,-0.072943058746599,-0.110847927488422,-0.308774603749562,-0.830956192495108,-0.52315351876299
658.978775000003,111.998737500004,5.41578711899876,-1.11463972235671,-0.00102401393647109,-0.801053033446612,-0.352620673119805,-0.671695961235436,-0.682684618759451
659.980262500003,111,4.99428105999888,-0.995049699915772,0.0207153451009198,-0.349375387561332,-0.32687501250667,-0.748932987440539,-0.33687299992832
660.981750000004,111,3.81561329937002,-0.933687052225258,0.095768665096937,-0.0732270407550048,-0.202644699899228,-0.605147281608072,-0.33837962445329
661.983237500004,111,4.03653342950095,-1.26603962496739,7.71967660647757e-05,-0.0866358369976511,-0.15907324999053,-0.774664345003394,-0.331729791245569
662.984725000004,111,4.28151730175088,-0.740669204354333,0.013528692582538,-0.056851392624292,-0.270163621567521,-0.773170371235397,-0.530692840653404
663.986212500004,111,4.4633772670006,-0.79340578250361,0.0525861972502036,-0.129269192500559,-0.360307514991661,-0.611778894998636,-0.272108634995476
664.987700000003,111,4.22364473749926,-0.672455187508603,0.0107260114796739,-0.137826328120611,-0.676855135408867,-0.643408350000513,-0.321006343753498
665.989187500003,110.988325000004,3.97868089499933,-0.487013428739026,0.178409179573811,-0.093955150941457,-1.00322027879734,-0.484150304968958,-0.320987667433243
666.990675000003,110,4.25023685000068,-0.310486818647474,0.124935441537031,-0.359670073910543,-0.762272453118052,-0.680166145624976,-0.370247872509575
667.992162500004,110,4.5266474000011,-0.286138364994988,0.210026671369597,0.0202065137493238,-1.21449301874832,-0.481385965000498,-0.106078545751436
668.993650000004,110,4.13065349262352,-0.407697590625214,0.631647632298574,0.00962647043615041,-1.74823964816283,-0.427368210104405,-0.262454679330298
669.995137500004,109.982375000003,3.73036895374864,-0.585722617177674,0.869549187471134,-0.807558515582148,-1.96089562498758,-0.363796083346842,-0.244668687494828
670.996625000003,109,4.0179436253759,-1.06531306250931,0.130460689969051,-0.900319386227414,-1.98398704166879,-0.417656046353976,-0.0830094681089904
671.998112500003,109,4.30784421200082,-0.939506464988364,-0.370877444973742,-0.431994245020668,-2.01919720000002,-0.394378990000378,-0.201347316998413
672.999600000003,109.022087499996,4.31572760476044,-1.54024506872416,0.349631314319724,-1.13069040176267,-1.94820207811679,-0.408996148445263,-0.194118612836989
674.001087500004,110,4.32349831318753,-1.55083201122851,0.569878343696488,-0.327099481255632,-1.88289422500009,-0.126892119993949,-0.176018767499293
675.002575000004,110,4.33126902161461,-1.87040639062523,0.518106492188164,-0.931011773959421,-1.68640740627279,-0.0165285000596032,-0.22280836770087
676.004062500004,110,4.33903973004169,-1.7711343312468,0.745067020244304,-1.40999047625709,-1.58600217501664,0.754496919395631,-0.382113542449595
677.005550000003,110,4.34681043846877,-1.97771,0.705188253955158,-0.782350290066878,-1.55613688001007,1.51330805375206,-0.607325888005794
678.007037500003,110,4.35458114689586,-1.97389016249657,1.10306514372347,-0.510635406261792,-1.48501629996928,1.35795289997601,-0.659549354202457
679.008525000003,110,4.36235185532294,-1.97087876873531,1.22715055295565,-0.913486125011425,-1.28160066406023,0.728059112017938,-0.431081613898448
680.010012500004,110,4.37012256375003,-1.88472200001686,0.541096725081045,-0.653613950081884,-1.21072975000551,1.05678690001206,-0.111616914997592
681.011500000004,110,4.37789327217711,-1.79471275417077,0.0551262261726033,-0.485695233756935,-1.1280021187524,0.502323105005352,-0.188375761101152
682.012987500004,110,4.38566398060419,-1.73376921251483,0.0806568006834852,-0.446336767517559,-1.14783190624898,0.864856974372708,-0.28524512624993
683.014475000004,110,4.39343468903128,-1.69934521873226,-0.0096865188130518,-0.450036498049046,-1.09272843749999,0.616229173125233,-0.237834199000564
684.015962500003,110,4.39734468674936,-1.79110114998257,0.0164912925681826,-0.259413237491746,-1.06998045000281,0.141820306010265,-0.158823204997185
685.017450000003,110,4.18354212781192,-1.66167043752668,0.224731416586243,-0.653994446890985,-1.13286106249194,0.687758571851568,-0.283111728443681
686.018937500005,110,3.97002684649915,-1.87705063755766,0.198503436117026,-0.888261003841819,-1.18832343332486,0.83865192373554,-0.375006834993374
687.020425000004,110,3.77031020924921,-1.68937689688137,0.112085755543629,-0.681036720650297,-1.14931611374982,0.721687390367174,-0.383134990489532
688.021912500004,110,3.62419454800769,-1.57764626667615,-0.030677633666733,-0.509521293319878,-1.09295959999974,0.584380699990397,-0.275824279999494
689.023400000004,110,5.64902266312262,-1.2944072375297,-0.174677561842855,-0.273140787566314,-1.10257722500234,0.52758639438254,-0.190096063747798
690.024887500003,110,4.94652925624783,-1.28835020833441,0.0721021209733262,-0.192096849578105,-1.04927510624663,0.383355056227181,-0.268986787501192
691.026375000003,110,4.26439386362508,-0.941987972507013,-0.0490278014271951,-0.396457935013193,-0.982712134153637,0.236546292072953,-0.266540193732216
692.027862500003,110,4.29364731350007,-1.01127436500047,-0.183299108872098,-0.439885872502313,-0.780359347500567,0.0146992160009895,-0.1487304500006
693.029350000004,110,4.31988208049972,-0.987565706575348,-0.0177460264439993,-0.527934956886744,-0.83320606249207,0.423274531878262,-0.217931340625721
694.030837500004,109.946675000003,4.24468243674899,-0.941600883752673,0.0682112743850264,-0.436804181236476,-0.994008550410686,-0.0790471432492951,-0.359155080848332
695.032325000004,109,3.97707496187407,-0.942126250001314,-0.204001570314887,-0.733271046867672,-1.1253174296855,-0.0232487523446735,-0.474923328128724
696.033812500003,109,3.72569648550061,-0.945472659989175,-0.0571658120002871,-0.517456080002294,-1.08155596000046,-0.28682918000064,-0.498874249991659
697.035300000003,109,3.91851788131306,-1.07159846875685,-0.588209085657579,-0.497764781282559,-0.974120985002516,-0.46411454103743,-0.693986085002541
698.036787500003,109,4.11895593833436,-1.4263580500341,-1.07819722808511,-0.75531151839189,-1.05217447162118,0.0343131269408117,-1.77929017916614
699.038275000004,109,4.51107167750162,-0.779222860130337,-0.383406530747121,-0.871546892647203,-1.29991794375088,-2.03199684995558,0.406716869064461
700.039762500004,109.062249999997,4.90318741666818,-1.67087587497148,-1.26484717491649,-0.162907649956997,-1.15746516039695,-1.07190806255898,0.500832813257899
701.041250000004,109.936262500003,5.2833121530004,-1.33821618662153,-0.572670485623684,-0.875967693809695,-1.86786979063155,0.391592503907574,0.899930853629801
702.042737500004,109,5.39443720600036,-1.97701747142855,-0.612873744705907,0.890565307766004,-1.83771299999788,0.0932984975694749,-0.430032988660936
703.044225000003,109,5.4210508174948,-1.46403469125004,0.832533132344234,-0.109967312499859,-1.51934406567711,0.0153717417757282,0.990639950145182
704.045712500003,109,3.76922515466704,-1.95589492499973,-0.857502724984219,0.684775238025989,-1.53780247502344,0.065787007597029,1.20889327515565
705.047200000005,109,3.90788777562559,-1.82476533749909,-1.90304534999361,-0.105490525251109,-1.72748729455563,-0.0889601554412718,1.82306099532552
706.048687500004,109,4.04655039658388,-1.41895291530265,-0.00787151381346522,-0.239534077376045,-1.3606559122495,-0.263860232501498,0.564915321998882
707.050175000004,108.927337500003,4.13977550437229,-0.877011350140121,0.0434154944567743,-0.715565713589371,-0.869365735579939,-1.09392662296818,-1.13323726434962
708.051662500004,108,3.51514050000495,-0.127422895658873,-0.100140215354163,-0.210272393421161,-0.775845658737516,-1.84961318018548,-0.860470886665597
709.053150000003,108,4.8875860955614,-0.957908151848244,-0.751863689945882,-0.169288697816986,-1.07213691662683,-0.256777443396298,0.370932268273224
710.054637500003,108,4.53155228187401,-1.88624931250131,-1.51978893753575,-0.772510497530554,-1.54401072504169,-0.291135037509556,0.866426945915253
711.056125000005,107.921387500002,4.22331466237705,-1.8706737156332,0.838452567437216,0.240006821921944,-0.969994847813214,-1.27108230239715,-0.867722947816192
712.057612500004,107,4.51556409098944,-1.60363564995921,-1.02638250033209,-0.473500329912483,-0.880628673333031,1.3365360333328,-0.522337180000279
713.059100000004,107,2.17423805438237,-1.64511007499615,-2.04423399374441,-0.179966729688737,-1.45642508905896,1.55542954685544,-0.695266748398411
714.060587500004,107,4.03648493708419,-1.96936583747492,-2.08142980000267,-0.644862426215533,-1.14971370499377,1.19877008749458,-0.294362944989916
715.062075000003,107.084562499997,4.28356859479245,-1.95255624999737,-0.547643458324706,-0.710953524996206,-0.347091304704464,-0.619722146828093,-0.314594759318855
716.063562500003,108,4.53065225250071,-1.98448293333345,-0.52383013744294,-1.07497805821921,-0.265770590008701,-0.684442520963968,-0.109370474962101
717.065050000005,108,4.7070280614964,-1.86583640155562,-0.410366958100783,-0.489424508118897,-0.157638020853461,-0.67359399286144,-0.0871741162005565
718.066537500004,108,3.9420502436248,-1.53195535960939,-0.168952421245283,-0.797010588737623,-0.310362404998676,-0.774495331878495,-0.204649435127057
719.068025000004,107.909487500003,3.89332286931231,-0.726544173748866,-0.323909633752586,-0.131400328248104,-0.904859259530946,-0.227137179436235,-0.262584826700084
