Time,ZephyrHR,COSMED,ANKLE_AccX,ANKLE_AccY,ANKLE_AccZ,THIGH_AccX,THIGH_AccY,THIGH_AccZ
0,83,1.57333933874575,-1.05527161570224,0.0202295825217442,0.0200265502039756,-0.99686140876108,-0.0273750136525659,0.0757371467148168
1.00269008264422,83,1.65708165517742,-0.801802010851942,0.269644242661873,-0.267697726586144,-0.87679070496682,0.164555901230225,0.167818301229468
2.00538016528935,83,1.74082397160916,-1.035120716253,-0.0621358707963602,-0.108165612124539,-1.00012913223161,0.0504535471067184,-0.014151904960042
3.00807024793357,82.6935495867792,1.82456628804082,-1.41591084297533,-0.377063381617432,0.0814139250646175,-0.876516432335658,0.454591265386387,0.273943600210647
4.01076033057871,82,1.90830860447256,-1.06513769173549,-0.0792089415874221,-0.135165931439737,-0.973278356816549,0.180314745251695,-0.0109544570997984
5.01345041322293,82,1.99205092090422,-1.05734338636271,0.0490453040359315,-0.190652832604403,-1.18739851711928,1.30574301843079,0.590326294937781
6.01614049586806,81.6854793388447,2.07579323733596,-1.13565075617261,-0.523977983923981,-0.270644861164107,-1.02518595040653,-0.179094272720033,0.171814419507245
7.01883057851228,81,2.15953555376762,-0.986774996901418,-0.0483326000325762,-0.302053548901103,-1.07763831955928,-0.115940620003898,-0.0103644232399978
8.0215206611565,81,2.24327787019928,-1.55835335289215,-0.546725521241144,0.311406685882528,-0.830751625205935,0.438086018595438,0.265186809710913
9.02421074380163,81,2.32702018663102,-1.66834884845314,-0.0597780162595613,-0.271516659092629,-1.16872954545349,0.491244268171959,0.953284554563597
10.0269008264459,81.3252809917331,2.41076250306268,-1.02460241322413,-0.0573595368598074,-0.258639900823524,-0.918001366394166,0.303705962536397,-0.0388658062256024
11.029590909091,82,2.49450481949442,-1.00400988119938,-0.431346621043971,-0.526964652471021,-0.935491428096009,-0.855326792118816,-0.396881599995964
12.0322809917352,82.3306611570224,2.57824713592609,-1.98127237190081,-1.34071387603411,0.115163480001882,-0.871083177706602,0.402434925588541,0.463410334697302
13.0349710743803,83.3333512396675,2.66198945235783,-0.308276430984854,0.363454013022641,-0.185499259008732,-1.0605324552298,-0.173348645452234,-0.0867907227698837
14.0376611570246,84,2.74573176878949,-1.82417446280722,0.24073589090577,-0.126745940480206,-1.21526624793366,0.571055297523959,0.109970574480893
15.0403512396697,84,2.82947408522123,-0.99959864820288,-0.108779094987823,-0.177935979330566,-0.927047061018652,0.20000556253778,0.00274482381785373
16.0430413223139,84,2.91321640165289,-1.05783090876929,0.0292823516361893,-0.196302832421413,-1.16604274277419,-0.038123322008682,-0.0602449364918327
17.045731404959,83.6558884297538,2.98673102980367,-1.06986681301312,0.443335936673522,0.217684147230394,-0.568446872565325,-1.07337605931311,-0.241867662548048
18.0484214876033,83,2.86982989979338,-1.61899487189248,-0.0950401348562548,-0.239385112319211,-0.554607741330178,-0.483313688010911,-0.127463185281428
19.0511115702475,83,2.7529287697831,-0.768269093385667,-0.0960646182297473,-0.578589820563851,-1.5741229334681,-0.210858016162554,0.200297939204313
20.0538016528926,83,2.63602763977271,-1.50443817045583,0.0143849893182708,-0.124686598182732,-1.22482069697165,0.353159230313577,0.0132626146974496
21.0564917355368,83,2.52292949708266,-1.06049894317942,-0.0783053677387693,-0.156441317393484,-0.921453996900833,0.261920955992026,-0.0632102612314741
22.059181818182,82.6424380165308,2.46765921434709,-1.07196028925696,-0.162563024792438,-0.213335219007396,-0.846669776857982,-1.03803398179705,-0.255073241321643
23.0618719008262,81.6397479338866,2.41238893161158,-1.79706860991429,-1.73090651899757,1.64895998312413,-1.09416892181786,1.03626234909457,0.216908639048886
24.0645619834713,81,2.35711864887601,-0.819935578614175,0.257244626030702,-0.382020498280365,-0.767484586985848,-0.231289714044894,-0.169696878925462
25.0672520661155,80.6343677685973,2.3018483661405,-1.29050630471644,-0.0885861975850511,-0.605745361374214,-1.24986100515497,-0.588228788414855,0.154223808676296
26.0699421487607,79.6316776859521,2.31305262417392,-1.36149745182191,-0.0698828921245103,-0.278821858303168,-0.98037023470907,0.266334880993307,0.0315605765291262
27.0726322314049,79,3.14269093217978,-0.986114411672289,-0.0983914006219799,-0.209573011362421,-0.980995849586105,0.170175249096488,0.0140559463242947
28.0753223140491,79,3.97232924018564,-1.09415081731284,-0.242367113858691,-0.159866861770935,-0.928960517630518,-0.266341378183471,-0.292450639945682
29.0780123966942,79,4.80196754819226,-1.4332168291793,-0.832379963851847,0.843226236973779,-1.20011258519745,1.25093881758376,0.127226546065118
30.0807024793385,78.6209173553743,5.46348451438048,-0.717470783467778,0.232687193387139,-0.285824490909249,-0.872700420254829,-0.0918248292908972,-0.24048363303248
31.0833925619836,78,4.33484653045429,-1.08920589082785,0.162868780235197,-0.578700899940286,-1.38806975761016,-0.829898951572428,0.140904399201336
32.0860826446278,78,3.29613508611573,-1.24620007806183,-0.0148360440491318,-0.115292015139447,-0.978393692148975,0.291763365701976,0.124945933884962
33.088772727273,77.6128471074398,3.15334533374651,-1.0189646119151,-0.0857559144817666,-0.365130756765491,-1.00083064497229,0.0500556032522805,-0.0326646910033389
34.0914628099172,76.6101570247956,3.01055558137742,-1.07139888347152,-0.299105286776188,-0.226337328925339,-0.84130337465277,-1.20101103360874,-0.342924368043617
35.0941528925623,76,2.88720480109506,-1.68245169698708,-1.12861111534305,1.49528172353962,-0.866275553473626,-0.285911194325648,-0.0448514859177575
36.0968429752065,76,2.94024209301653,-1.3950429772964,0.12617814119054,-0.54925457270411,-0.540714100000427,-0.537572586773361,-0.544077733041003
37.0995330578517,76,2.99362717227276,-0.883172163811549,0.0968887448232372,-0.640958611606322,-1.54167565601575,-0.371810191637566,0.14582415807249
38.1022231404959,75.5993966942169,3.04998838181819,-1.14626059092698,-0.0520299359549578,-0.292288709081311,-0.924855558677786,0.205025818181854,0.0618895608263817
39.1049132231401,75,3.09907647768595,-0.961636817557568,-0.0482677680636252,-0.227466446491217,-1.01021453884229,0.010070310573414,0.0629002378357175
40.1076033057852,75,3.08931696088154,-1.15242777067154,-0.134619406403486,-0.0640728303675642,-1.11329016776838,0.0449256560459313,0.00815303923096895
41.1102933884295,75,3.07955744407714,-1.47624556404774,0.0433001265280397,1.19937612237831,-0.918796592202023,-0.693250946581983,0.22838124294655
42.1129834710746,75,3.05212347454541,-0.877357355373307,0.185216603305014,-0.319358239669897,-0.473342863629646,-0.5337230454674,-0.22210872727943
43.1156735537188,74.585946280994,2.89263893230029,0.0236219826174831,0.569296052892254,-0.702362338658497,-1.20064307231244,-0.150921326858629,0.0613653395441291
44.1183636363639,74,2.73315439005503,-1.22752775005985,-0.142448350782702,-0.0632375151947422,-1.27695942769525,0.799847157338384,0.431889495683662
45.1210537190082,74,2.62645725884297,-1.03109148794918,-0.0493524496897864,-0.442012631565244,-0.933623355475275,0.212689821176859,-0.0110249849510688
46.1237438016533,74,2.88560585300288,-1.13218836364058,-0.607368636405835,-0.0931854131851603,-1.04523792316622,-0.113858469021658,-0.133711741119958
47.1264338842975,74,3.14475444716256,-1.57538475203499,-0.953074716805051,2.15560169317984,-1.25072383948769,1.34232625674595,0.0997817515174644
48.1291239669417,74.4275041322289,3.38309256198344,-0.983829343028119,0.301864484301364,-0.277505238036523,-0.593834588434532,-0.373999717008108,-0.309054084248241
49.1318140495869,75,3.48710494655649,-1.04239521517841,-0.0112451879628472,-0.856451537918894,-1.39029269977246,-0.395479664257721,0.611985235829903
50.1345041322311,75,3.59111733112945,-1.14720858057493,-0.074271304190073,-0.207039361036076,-0.950160386777019,0.168962910744767,0.0952675342159747
51.1371942148762,75.4355743801634,3.66993729797519,-0.916838445181378,0.00488211558510567,-0.322016450836851,-1.01934140909048,0.0447301,-0.000406243871312741
52.1398842975204,75.5617355371924,3.59677768724519,-0.954527671495112,-0.55598426237801,-0.20703355268729,-0.861421838868395,-1.20200335532421,-0.521067301606752
53.1425743801656,75,3.52361807651512,-1.9720726969681,-1.98065948483312,0.282895595446062,-1.02901754542079,1.29371674102708,0.733215318243221
54.1452644628098,75.443644628097,3.40617999239671,-0.608635964741896,0.313302937191163,-0.134050976863874,-0.81447849751226,-0.263719190498226,-0.207178744955313
55.1479545454549,76,3.03830302797503,-1.48737763423906,-0.216706200558044,-0.5844142334558,-1.14682545039492,-0.352277107418011,0.0772479629711757
56.1506446280991,75.5509752066137,2.72923960942149,-1.16391236639503,-0.103272750370944,-0.175110677450507,-0.959223151516952,0.228342772723906,0.0958803660057777
57.1533347107434,75.4517148760306,2.73932667165289,-0.928101077819598,-0.0461997125966434,-0.24919534987035,-1.01526494834658,-0.0099523981101495,0.0245353767546566
58.1560247933885,76.4544049586757,2.75003783305785,-1.06840372396739,-0.56666380495905,-0.141991211983766,-0.909753785857957,-0.937513642876305,-0.526979416899147
59.1587148760327,77,2.76400196360881,-1.48023799167017,-1.34819545676325,1.2903706275233,-1.02807269783587,0.906045764695482,0.579407736274979
60.1614049586778,77,2.77796609415978,-0.716740908268897,0.273922768184137,-0.20269414297529,-0.86929029008165,-0.216278391323845,-0.113217242770002
61.1640950413221,77.4624752066093,2.80980364491734,-1.97395260537178,0.328973366940993,-0.427270642765513,-1.42607173760655,0.747626457225127,0.809279188229953
62.1667851239672,78,2.92951481388434,-1.03792966942751,-0.115289590077515,-0.254464818172068,-1.04214526170894,0.262271953167026,-0.0264766889813092
63.1694752066114,78,3.07065567438015,-0.994818427683417,-0.135644304346568,-0.295336802691073,-0.922473647932486,0.329711821073654,-0.138173210332603
64.1721652892566,78,3.31325319757587,-1.7235414545327,-0.675929518110873,0.155958553609977,-1.43925895456945,1.41545979061255,0.334539774496922
65.1748553719008,78,3.55585072077136,-1.61860847430972,0.0308052067187291,-0.325963712427259,-0.651839244007013,-0.389382497523253,0.013609734273679
66.1775454545459,78.4759256198331,3.69201114280973,-0.00151407168531733,0.712161153678021,-0.368369577662037,-1.2306215123967,-0.109681551239662,0.0382703014876093
67.1802355371901,79,3.35118341451786,-1.74768768596788,0.141849378462865,-0.273540836734563,-1.27582512396769,0.711260766526181,0.089225781123687
68.1829256198344,79.4813057851215,3.01035568622599,-1.04680460330254,0.0219542502830161,-0.0481305810675717,-0.975016501452261,0.279343605684264,0.0359983728134887
69.1856157024795,80.4839958677667,2.7202055281818,-1.02481677297727,0.0772616823614861,-0.300711755244207,-1.00654524743118,0.0951039997044131,0.0195627814327869
70.1883057851237,81,2.64542490181819,-1.42886460605318,-0.135525977850969,1.19487231320617,-0.809216231413296,-0.228130553712141,0.156458056370776
71.1909958677688,81.489376033056,2.70901279210765,-1.32495822383238,0.0969262508190255,-0.573650411434282,-0.534766513640514,-0.470113544207093,-0.168170978887699
72.1936859504131,81.5079338842997,3.34073762487599,-0.573142436907059,-0.13870645934667,-0.848036480742704,-1.76194948351184,-0.384974774762524,0.127724762394787
73.1963760330582,81,3.80371760847099,-1.20573865496558,-0.104377707100188,-0.0518545156675464,-1.13147485540734,0.390683697966103,-0.049704327154258
74.1990661157024,80.5025537190104,3.59681250991735,-0.980990450910011,-0.0487444423128446,-0.284414255274439,-1.01397924627444,-0.0078803831244272,0.00516169439503243
75.2017561983475,79.4998636363653,3.41334350999995,-0.990087389609466,-0.513756469474659,-0.258027753902292,-0.909005959101476,0.0129282091044789,-0.184055985488559
76.2044462809918,79,3.31988610969696,-1.98093248140491,-2.13615334711828,1.45167944504877,-1.66403047928252,1.73408667454636,0.125939911180377
77.207136363636,79.5055165289232,3.22642870939397,-0.776851882923238,0.319087259641271,-0.127986659782882,-0.684245672863549,-0.38147772865133,-0.420802973139354
78.2098264462811,80,3.137517907438,-1.45852479339585,-0.072148467504073,-0.860463256185407,-1.30982180167327,-0.584184915706171,0.0902442975222534
79.2125165289253,79.4891033057875,3.06524400628101,-1.12393972779245,-0.0548598482708125,-0.390541161451098,-0.948945870385227,0.323911829060319,0.0620086830293888
80.2152066115705,78.4864132231423,3.01068873797521,-1.00992420674952,0.0359392988998145,-0.230674256204436,-1.00870204242897,0.0625014054262696,-0.0172896450325872
81.2178966942147,78,3.01895591770661,-0.959431521491311,-0.340483567956049,-0.383600125222875,-0.969733002578651,-0.933262280983305,-0.419355874326973
82.2205867768598,77.481033057853,3.02260245008264,-1.98289,-1.47062388427081,0.265397024776784,-1.12924826446729,0.393375702445644,0.146662537167918
83.223276859504,76.4783429752088,3.0103662887741,-0.153184098862369,0.487227168171249,-0.400398823975903,-1.01298158137836,-0.180791452895326,-0.0985636316603592
84.2259669421492,76,2.99813012746556,-1.95485304341535,0.347128774195109,-0.327414164888438,-1.08910266085379,0.444883560753978,0.122508629932667
85.2286570247934,76,2.97735784971074,-1.00888336776815,-0.0920500763652305,-0.204982008470852,-0.94456687521767,0.189204490799272,-0.119201475220974
86.2313471074385,76.5297272727257,2.92855023878785,-0.984178963634442,0.0965737050372571,-0.245974943084996,-1.24875333334263,-0.0267944678987421,0.0527588994012061
87.2340371900827,76.4675826446301,2.879742627865,-0.974886654795492,1.31826045517727,-0.467290206978022,-0.689336158262803,-0.692077336387668,-0.133730022341478
88.236727272727,76,2.87876979752063,-1.2170248435058,0.28517829966257,-0.660867795998195,-0.453135992892861,-0.555216009257496,-0.242295424625985
89.2394173553721,76,3.02807035082649,-0.582859095125251,-0.125388879267074,-0.36671268206124,-1.59358601803142,-0.491495794869662,0.150310146405394
90.2421074380163,76,3.14223261421487,-1.37568637741373,-0.100889581790435,-0.276430522316994,-1.04704900826795,0.170816109927462,0.103188079002225
91.2447975206615,76,3.14917122958678,-1.07079397520307,-0.0603021405097496,-0.178663542556312,-0.926043439420113,0.208686752814912,-0.0368465513229893
92.2474876033057,76.5458677685929,3.15610984495868,-1.02067596418541,-0.0264149343404997,-0.298008916329164,-1.15172287190645,0.184515395647614,0.0199030199383333
93.2501776859508,77.548557851238,3.1247748387396,-1.64783321745867,-1.63112845743798,2.49541193223136,-1.05558099522596,0.336327123574745,0.358862428653611
94.252867768595,78,2.98154557388429,-0.935823744230183,0.286157848965269,-0.471473120244106,-0.601353038430076,-0.449305464462437,-0.350823998347335
95.2555578512402,78,2.8803795172934,-1.3957682668629,-0.179533130150616,-0.640870752208817,-1.32978442357119,-0.515485741018824,0.114256070971719
96.2582479338844,78,2.89878389376033,-1.14611276653077,-0.00291998713534153,-0.268257068391365,-0.916876560192602,0.241608421070063,0.101362293582068
97.2609380165286,77.4406818181842,2.90825551454546,-1.08123861743607,0.0527847367598929,-0.100172910592703,-0.952166193181797,0.129550886363666,-0.129093852272836
98.2636280991737,77,2.89302799449035,-1.04137845769673,-0.374528001333921,-0.584929512921558,-0.974850849912223,-1.19479489255429,-0.335695994771378
99.266318181818,77,2.87780047443526,-1.83337985354388,-1.24839552702213,0.88219400023556,-1.00662509194116,0.509676460461769,0.381821566772918
100.269008264463,77,2.93986451652902,-0.464053103872985,0.29629759090378,-0.296947759240193,-1.02015852836221,-0.173727471214921,-0.177566425200845
101.271698347107,77,3.20708142355371,-1.88051618456288,0.112691075765082,-0.70207983100514,-1.42513962292479,0.688613449655478,0.791169994222093
102.274388429752,77.5727685950396,3.47429833057864,-1.05320626385236,-0.0437210785937636,-0.344886471507118,-0.973590951779465,0.468852427569173,0.0407062175978959
103.277078512397,78,3.56751645526857,-1.02117251767812,-0.154097495980145,-0.254932706615432,-0.963711163221827,0.0973280553541621,-0.0901491693217119
104.279768595042,78,3.21706123103286,-1.13759049586787,-0.395038590909415,-0.254751603305909,-1.27716140485216,1.57397735562212,0.673481530251726
105.282458677686,78.5808388429732,2.94802554111569,-1.98071550000025,-0.853720186412244,0.215406744208995,-0.597681753621188,0.0779680328694132,0.116716517160516
106.28514876033,79.5835289256174,2.88119624710745,-0.0680787538672349,0.586124771890354,-0.188892341029132,-1.18084782642386,-0.1988961859655,0.00111474289066098
107.287838842975,80,2.81436695309916,-1.97767594421451,0.293395031215353,-0.425309469631434,-1.31472110330588,0.792789219923568,1.59389042960015
108.29052892562,80,2.81703684090906,-1.02360196362573,-0.0526177636456233,-0.184001945477539,-0.964119127272251,0.346838036369996,-0.0353029727171301
109.293219008265,80,2.98570602431135,-1.0395631973156,0.147646741737148,-0.0507434240632976,-1.13284584710308,-0.0621174274461522,-0.0383055987526021
110.295909090909,80,3.15437520771349,-1.3655920495913,1.94239735538813,-0.127814462402474,-0.933616368190401,-0.456223707000231,0.104906947118489
111.298599173554,80,3.27504098719009,-1.46620760744562,0.265762594007577,-0.350236597719351,-0.523994423140141,-0.46113328502326,-0.424722564660394
112.301289256198,79.4003305785145,3.28536869504132,-0.219765971567525,0.730608004957123,-0.600285264459763,-1.28304879753128,-0.0850316814890687,0.0741482691787806
113.303979338843,79,3.29127101518595,-1.60519944628637,-0.0329644833986619,-0.286140261787235,-1.14537624379728,0.415050699682889,-0.0460407356169574
114.306669421488,79,3.28725524140496,-1.01125322417634,-0.0564003723597361,-0.888824550959647,-0.929201806239356,0.142888191474561,-0.0312053339022653
115.309359504133,79,3.22576957768583,-1.0797273648141,0.193327287756592,-0.307901428308284,-1.03947993919161,-0.0366776391416421,-0.00681566747478751
116.312049586777,79,3.03866760826442,-1.51171286501713,0.44975109648846,0.514743890951739,-1.38125418185941,0.492566365502309,0.59971471163618
117.314739669421,79,2.85156563884301,-1.04123769838485,0.250883135530636,-0.314789377705293,-0.532011821381953,-0.595181448760011,-0.245772613614722
118.317429752066,79,2.66446366942143,-0.226596742893159,0.490948963429323,-0.641489340909802,-1.38374273552277,-0.192146138839874,0.125891284449788
119.320119834711,79,2.69163509499996,-1.31531875,-0.2022642875,-0.26209264625,-1.07977416668137,0.28988854168507,-0.0245649333374293
120.322809917356,78.3788099173571,3.16459398008284,-1.00142872176616,-0.0728936639678461,-0.326278765290935,-0.953479695850718,0.142093669122641,0.0300971558333375
121.3255,78,3.42022636086777,-1.03335521198318,-0.035187918766416,-0.240614107467978,-0.993837828724145,0.221745203324297,-0.0962177314802032
122.328190082645,77.3734297520678,3.23460503046822,-1.36987227104371,0.395214628199323,0.362246315654784,-0.712691533481671,-0.435803577280346,-0.0774702470205041
123.330880165289,76.3707396694235,3.04898370006885,-1.00609012977406,0.380121557016688,-0.237519611575478,-0.509309196893445,-0.476359279758565,-0.189499850413909
124.333570247934,76,2.97639498855381,-1.05341629750463,0.160806082662758,-0.525017776862255,-1.39236181821357,-0.595045272660411,0.228977380188178
125.336260330579,76.6346404958658,3.12514907576449,-1.14750244628166,-0.073944388055052,-0.167447153721832,-0.968371627689476,0.25841875310103,0.038524743369086
126.338950413223,77,3.19591630413225,-1.02834642382101,-0.053321151432889,-0.228878412529549,-0.965872017027201,0.0961384135812515,-0.20223864849556
127.341640495868,77,3.11757278567491,-1.08185545660728,-0.0629957576529841,-0.197041098236398,-1.14304283473389,0.239137795240647,0.000506486108523988
128.344330578512,77,3.03922926721764,-1.86154300001273,-2.01121935539371,1.01403624297734,-1.31690261981002,1.33647798331174,0.346534197481604
129.347020661157,77,2.99337358095042,-0.649070754183404,0.227049148751863,-0.279116855415118,-0.82376678717816,-0.207548598143251,-0.433697867778067
130.349710743802,77,3.00746806121212,-1.95502181817983,0.244645127262407,-0.425513854545609,-1.21097204544024,0.426959768156828,0.566651140888181
131.352400826447,77,3.02156254147384,-1.09146450206196,0.00782698787580161,-0.24803764367211,-0.954795879035402,0.299425607960072,0.0724377677211729
132.355090909091,77,3.077032372281,-0.955823447923055,-0.091665411887332,-0.276761658678033,-0.931261803304513,0.162817203296058,-0.159342732239214
133.357780991736,77.6561611570232,3.20621695714884,-1.25289525572665,0.0841143926584,0.0723300650024144,-1.29218962396494,0.870122603132534,0.186959156127461
134.36047107438,78.6588512396675,3.33540154201655,-1.94052648244095,-0.31601541943356,-0.301661389449607,-0.553900256886693,-0.204640825754211,0.0864413860920517
135.363161157025,79,3.46458612688439,-0.00395361336663337,0.620000980856967,-0.278185643792785,-1.20437043283943,-0.215721884097255,-0.00574912244056724
136.36585123967,79,3.5937707117521,-1.52081600825726,-0.116778566531586,-0.324738271072546,-1.20915730579507,0.361762616560275,0.0734275753281294
137.368541322314,78.333078512399,3.44812001185958,-1.01609149586868,-0.0205955220425234,-0.141200029752788,-0.910430886570744,0.256915232645763,-0.0770399168907673
138.371231404959,78,2.84031936446258,-1.05502026033417,0.151873583092844,-0.0582258532465932,-1.2475465812706,0.052886926523356,0.0192107473285523
139.373921487603,78,2.23251871706613,-1.29545734848155,0.0830654490796234,0.514242384971111,-0.700400581609127,-0.864504104324606,-0.213501370861675
140.376611570248,77.3250082644645,1.8766091499587,-1.0469300043992,0.184591826449985,-0.308669150410135,-0.547715186774923,-0.494660241327512,-0.284175899190919
141.379301652893,77,1.92999738340909,-0.706419002301479,0.0878677455249118,-0.425647352294738,-1.65481492046054,-0.342700260499307,0.183760521836808
142.381991735538,77.6803719008249,2.03446512132242,-1.19671884848154,-0.123326042974933,-0.173115275756195,-0.935207618196518,0.162201858273911,-0.0287365461766747
143.384681818182,78,2.22006974022042,-0.999756466115616,-0.14369245781214,-0.172035123969434,-0.953189232781131,0.0231417649841481,-0.0375666225632406
144.387371900827,78,2.40567435911858,-1.01320302479657,0.0942184380189429,0.0426428098327826,-0.948350088164112,-0.192690518551842,-0.357140913860772
145.390061983471,78,2.61173454130172,-1.86573743234244,-1.62818738432097,1.92198044152804,-1.0488369958748,0.428421355250184,0.196682396014493
146.392752066115,78,2.84920664702476,-0.699827399187481,0.311017383891896,-0.143150590086591,-0.790970554542183,-0.235264438017761,-0.166918541047593
147.395442148761,77.3061776859522,3.05935870382238,-1.70152643137079,-0.188278732310541,-0.522807879995951,-1.13018596279934,0.183751789222011,0.327570315677272
148.398132231405,77,3.22848745351239,-1.20617840771307,0.0422268564110468,-0.19334617411084,-0.958866763637843,0.591807523941378,0.00202170194750511
149.40082231405,77,3.23350837053708,-1.0806644705709,0.0117275975914991,-0.128987535518127,-0.989159920798253,0.125280272520427,-0.132258913983316
150.403512396694,77,2.99754531338842,-1.32939991643389,-0.239634505319341,0.21142093718489,-1.15644705328869,0.758084141288727,0.171659337305584
151.406202479339,77.7045826446265,2.76065207946268,-1.68056208884204,-0.288999966739696,-0.0333341153701953,-0.651684005021618,0.23856158155904,0.394149064036424
152.408892561984,78.7072727272707,2.52242294272724,-0.817226969705833,0.262801818187882,-0.0300000260580292,-0.765482954547414,-0.0544426345463373,-0.0183307018172932
153.411582644629,79.7099628099159,2.51455741921508,-0.379494654394471,0.0436557324967463,-1.13521966197622,-1.39441428306029,-0.122140633265874,-0.00911225744149665
154.414272727273,79.2873471074399,2.83029449933892,-1.83201151856227,0.202636742545655,-0.267485703770941,-1.15526270661202,1.01339457644636,0.719253559228535
155.416962809918,79,3.18084742262426,-0.957411850758497,-0.185785070248782,-0.203886302707615,-0.688584065093046,0.292958539473995,-0.0760407190452661
156.419652892562,79,3.57924125971088,-1.00135951901923,-0.220209033244147,-0.0939301451875268,-0.898367657021353,0.126020205935715,-0.453855600124624
157.422342975206,78.2792768595064,3.95260259999998,-0.827515892549072,-0.271408205975518,-0.415432090430695,-0.922852785674653,-1.49178069283743,-0.472589778512295
158.425033057852,77.2765867768612,4.29231400000015,-1.9803180495864,-1.10652888437304,0.228250159951701,-0.759772580169435,0.167386706560677,0.0790483927543365
159.427723140496,77,4.45748693328512,-0.455785558874791,0.355719338846547,-0.11410804648779,-0.77891949586116,-0.221608871901224,-0.125995392564638
160.430413223141,77.7287933884281,4.39311924342972,-1.3769435950651,-0.0322869077824341,-0.652499039680535,-1.25426581818215,-0.606857889257755,0.234722580165242
161.433103305785,78,4.27263955458675,-1.13638218430062,-0.0149989857323288,-0.584656429743396,-0.890940222311911,0.313025357433305,0.0515278058011988
162.43579338843,78,4.07995928600539,-1.03100142562136,-0.0555441691520409,-0.129154133367263,-1.0077788398759,0.116056608677926,-0.157500350834868
163.438483471075,78,3.8872790174242,-1.03804799090904,-0.355903559590491,-0.345514067500853,-0.898302668190149,-1.07235280359639,-0.237481409992337
164.44117355372,77.2604462809932,3.68660097173538,-1.93827320661279,-2.12544133883676,0.746647685998062,-1.16547750205896,1.26111718333465,0.1067721312979
165.443863636364,76.2577561983489,3.47596252377404,-0.900972940391868,0.27831462754328,-0.234941231294248,-0.553355033137619,-0.406905888437188,-0.410949183711369
166.446553719008,76,3.26532407581269,-0.626369550346124,0.162447383061492,-0.779479681400648,-1.75315830440504,-0.302290653177687,0.112372920150944
167.449243801653,76,3.17141639301655,-1.47888606405364,-0.0589753187361542,-0.117967483885465,-1.14194863967072,0.376593088187731,0.0365937232523264
168.451933884297,76,3.21823199297521,-1.02441588280882,-0.0645125814137084,-0.429632592592385,-0.904909981487606,0.282125478016485,-0.00965342164296222
169.454623966943,76.7530041322298,3.26633560450416,-1.20883384988393,0.0422233783960209,-0.0665364024257166,-1.06431445248006,-0.0365261443794694,-0.00667732066017971
170.457314049587,77.755694214874,3.31595873669422,-1.49225611297774,-0.237791950990881,0.231118526536685,-1.20189684669804,0.648646318489703,0.412234429138156
171.460004132232,78,3.36558186888433,-1.91489097107343,-0.253049390079862,-0.159241296034832,-0.563731058404803,-0.388197854263695,0.201853428864172
172.462694214876,78,3.27061682504127,-0.839130355576478,0.219324205562253,-0.494636716859631,-1.69312633884373,-0.0399292900787833,-0.223314359092376
173.465384297521,78.7637644628085,3.0105089907023,-1.09764518285132,-0.0727539262706421,-0.177764339462375,-1.06303020834837,0.197123297933655,0.0217232261734267
174.468074380165,79,3.02317725818191,-1.09435318181347,0.0686691954492972,-0.0769102409210737,-1.05526348862914,0.127521965911628,0.0112589409139937
175.47076446281,79,3.34075928805782,-1.66407301468119,-1.81893333562114,1.15759330475163,-1.05212841988425,1.49479185537092,0.230828363747554
176.473454545455,78.228165289258,3.65834131793401,-0.504748061983914,0.262228955371537,-0.176599349586725,-1.02108966033049,-0.188231595867761,-0.323060461157226
177.476144628099,78.7745247933863,3.73048053012397,-1.61380777169564,-0.00158013719857144,-0.218187343802883,-1.16357542561975,-0.131713906200842,0.305159656473245
178.478834710744,79,3.53697137107429,-1.10994960950331,-0.0416962865995505,-0.265495010195585,-1.0477538151758,0.352917114876801,-0.0451601651617079
179.481524793388,79.7799049586756,3.34346221202478,-0.984330011365462,-0.118538416007425,-0.196650678717065,-0.959594199374437,0.139017166430362,-0.108036511467611
180.484214876034,80.7825950413207,3.38941643566133,-0.851284365312683,-0.0257890678131477,-0.357990326847982,-1.25641691048354,-0.169483207997186,-0.316643497959149
181.486904958678,81.785285123965,3.68632800948352,-1.98137717355364,-1.36669613744931,0.151694193939971,-0.941252230488022,0.803700451892441,0.9627451773782
182.489595041323,82,3.73981655140483,-0.302899490531693,0.348153034284334,-0.268195452217757,-0.902340866949668,-0.226811707232621,-0.115772618869769
183.492285123967,83.5813305785086,3.54361684063355,-1.93255663844153,0.339631887000668,-0.411429676667433,-1.07844278098339,-0.219722871048396,0.159082147522038
184.494975206612,84.7933553718995,3.34741712986211,-1.15273512397448,0.0189448975214445,-0.322817008296449,-0.927913574373976,0.352176396695047,-0.0062596603295322
185.497665289256,85,3.32108496977278,-1.06939301514576,0.0539231299912482,-0.141274356058388,-0.989677697734335,0.133054498173801,-0.0295477786263014
186.500355371901,84.2012644628121,3.46347197495867,-1.72447538960674,-0.686099661462817,0.0753091649934062,-1.06986198694922,-1.37621060225338,-0.296337776907363
187.503045454546,83.198574380167,3.52559806442148,-1.98207825482073,-0.983525593591677,0.0207300039181899,-1.11812172088077,0.272753734513639,0.0955792534542784
188.50573553719,82.1958842975228,3.50969874201102,-0.35194747729271,0.34326922933356,-0.0990234314022864,-1.00572459752208,-0.245438556094064,-0.330973298548048
189.508425619835,81.1931942148776,3.49379941960054,-1.94392209711049,0.470940127059703,-0.275791386378918,-1.2458254338832,0.960174887922399,0.305355763961963
190.511115702479,80.1905041322334,3.40099988826444,-1.04543342975443,-0.0491068204895604,-0.556309529914225,-0.963157452997347,0.573234752788774,0.199944661523385
191.513805785125,80,3.23581171059906,-0.952599829596801,-0.0915294901802473,-0.525022075307934,-0.958111327546655,0.134875317353276,-0.296688014453067
192.516495867769,79.185123966944,3.21936342111573,-0.844375434925064,0.0609034591755402,-0.377268640931745,-1.09724867767967,1.27534939327349,0.312553457068592
193.519185950414,79,3.33995194390505,-1.97763775206622,-1.92090108264412,0.401565469833207,-0.804500248961995,1.47710720721188,0.79140774872792
194.521876033058,78.1797438016547,3.41085975140497,-0.494950783091282,0.337626111542652,-0.0952561787295424,-1.01113856611584,-0.253161238636412,-0.172703295454405
195.524566115702,78,3.43696980115702,-1.95938591632229,0.411770918181609,-0.348647739049695,-1.47747148072545,0.682372871919564,0.728748385689545
196.527256198347,78,3.47935011636366,-1.11409613636486,-0.00215226769066653,-0.328409527259664,-0.987235999997403,0.444655254537615,-0.0117055625468802
197.529946280992,78,3.53608900584022,-0.908370211186541,-0.0727459073576753,-0.217960417281197,-1.00695682381138,0.0095409796051807,0.0218102340003413
198.532636363637,78,3.59282789531684,-0.986366366518842,-0.408477101653236,-0.430936677679689,-0.862106984573616,-1.01982526885321,-0.4448192928379
199.535326446281,78,3.55466646621899,-1.97630202479718,-2.07035525833973,0.101495069439841,-1.03362832389004,0.376468008293697,0.416203535772458
200.538016528926,78,3.43542154814042,-0.532806575230665,0.386961100815414,-0.0544035598425267,-0.908999322296636,-0.275943426445222,-0.178815633084692
201.54070661157,78,3.37645095805785,-1.90036714874994,0.215061913606265,-0.49667964590567,-1.26345993800224,0.59630025069452,0.841588325336082
202.543396694216,78,3.36787795785123,-1.11696005233887,-0.0455839549042281,-0.353525062261934,-0.910742053715213,0.605691575348796,-0.0571101830603919
203.54608677686,78,3.35930495764462,-0.978687288291763,0.0123551581210043,-0.217493633013285,-0.989757687398671,0.109102634295686,-0.128252760329918
204.548776859504,77.1528429752088,3.4031829198347,-1.00361180165198,-0.56670884297241,-0.0911786528955032,-1.02377912809916,0.668439939388909,-0.00399547493481481
205.551466942149,76.1501528925637,3.48951453595045,-1.87529410121661,-1.90590828310631,0.850852584151797,-1.06743978927558,1.96525617766635,0.670193729096701
206.554157024793,75.1474628099195,3.35072755438016,-0.607737099932533,0.324961240288807,-0.106498656336703,-0.868644741329396,-0.190321991944635,-0.134142268800065
207.556847107438,74.1447727272744,3.03364686954529,-0.64144338629242,0.121265490907682,-0.333008545417463,-1.59641918181205,-0.405074284303443,0.209726404551309
208.559537190083,74,2.92342573884298,-1.55028543804986,0.0663768391157902,-0.168770861156912,-1.14553021488033,0.499926088715807,0.166939357239152
209.562227272728,74,2.97350676617083,-0.953821791322429,-0.0591591937944389,-0.195337882216895,-0.936906542697924,0.115986494079885,-0.0182056083203444
210.564917355372,74,3.02358779349863,-1.03048761790929,0.019487652535755,-0.181991322039961,-1.12765011364169,0.145527165924448,-0.103459781557246
211.567607438017,74,2.96718671458668,-1.62557771715406,0.107579798834453,0.64391511709319,-1.10114666201491,0.00653149937539527,0.665094676242011
212.570297520661,74.8686776859486,2.83093115925616,-1.14733325235665,0.277056164734775,-0.513009744374334,-0.403170748764023,-0.51422961983842,-0.378792132197288
213.572987603307,75,2.91360901115722,-0.600873348296103,-0.279300866515328,-0.161841071888094,-1.41622743385495,-0.13042149661567,0.105123871073274
214.575677685951,75,3.15690841741057,-1.34158584712471,-0.139224380171076,-0.0862043062902241,-1.13586002065785,0.235557630848496,0.0159889996277936
215.578367768595,75,3.40020782366391,-0.929577476532332,-0.0950538309009994,-0.379001857367913,-0.975858875824642,0.121784995908647,-0.145542720325207
216.58105785124,75,3.49670615603305,-1.06426304958302,0.106368752912115,-0.0106247550444106,-1.1241868095065,0.174855994233101,-0.0772266087545143
217.583747933884,75,3.48900549619835,-1.37621575619076,0.650793293433347,0.175192868568346,-0.915596493781035,-0.0902821295387687,0.0907306571484625
218.586438016529,75,3.36954786363625,-1.04751838187254,0.233140049995297,-0.395355681797979,-0.484403409091993,-0.53463257121131,-0.594758587876506
219.589128099174,75,3.17250255089528,-0.30681902892908,-0.72376286366159,0.0350030165500747,-1.62241899277265,-0.378369555166255,0.127553609202358
220.591818181819,75.890198347106,2.97545723815413,-1.23543933059591,-0.0689145890319647,-0.0464740463463198,-0.953298198364698,0.195375143824953,0.0780867378367989
221.594508264463,76,2.90722696774794,-1.02093497830849,-0.0549239451736385,-0.356096358180028,-0.992060204338975,0.0139159714050565,0.0350387332238223
222.597198347108,76,2.92549096760332,-1.02152522369187,-0.0106489548605927,-0.231089305755897,-1.09478180164015,0.244444876017534,-0.0593222586368965
223.599888429752,76,3.05280621022735,-1.41707148634174,-0.275310011485065,1.2443675644044,-0.873890063498556,-0.329091746834407,-0.0754363494497115
224.602578512397,76,3.2517248822729,-1.22198720528473,0.198994909072128,-0.521799402226815,-0.446291419421808,-0.538335208677229,-0.331794497934069
225.605268595042,76,3.30733752099172,-0.731065261511602,-0.288537720194493,-0.380400102191517,-1.67917649806813,-0.337261322845303,0.151915138039079
226.607958677686,76,3.27094655559228,-1.22269768599386,-0.110740114884104,-0.205729623969073,-0.938382751514991,0.28994899201074,-0.0036080774658428
227.610648760331,76,3.23455559019282,-0.996303366529009,0.0473528606642931,-0.214583069830179,-0.976797314878976,0.144462886224819,-0.0316607279952559
228.613338842975,76,3.26095429214877,-1.09556355553405,-0.598135520421889,-0.172713185869322,-0.877365702474654,-0.796260277642094,-0.21095126611694
229.61602892562,76,3.32631965863641,-1.97812525568033,-1.83686678978172,0.623990156294227,-1.16215424248363,1.24095011376183,0.930929189329998
230.618719008265,76,3.30207894611568,-0.467724112811691,0.254866016390581,-0.0712662514481009,-0.746253810330519,-0.178914615082946,-0.448270458675238
231.62140909091,76,3.22348141283741,-1.79622296693903,0.0548606066862907,-0.623298116530529,-1.19423317354858,0.0232506906903757,0.402348929328602
232.624099173554,75.0775206611588,3.1448838795592,-1.12187383471524,-0.0158968522319634,-0.261496370245378,-0.986698049587139,0.492922709091849,-0.0219122173555965
233.626789256198,75,3.1361958553719,-1.04314161197407,0.000887489288749477,-0.13787024360022,-1.02411310826286,0.0622535021178459,-0.0933243509674157
234.629479338843,74.0721404958695,3.16848247603307,-1.08822153433674,-0.124682572139105,0.0858875447943974,-1.36314513946919,-1.36414444474347,-0.365068088830489
235.632169421488,74,3.18311747380165,-1.98374164710749,-1.48891118552946,-0.132405744767609,-0.99775931314018,0.729315441614853,0.551187451295596
236.634859504133,74,3.18764294837466,-0.323203832149825,0.344696626158127,-0.16318041154128,-1.04414969719164,-0.268917987108,-0.116739633718755
237.637549586777,74,3.19216842294766,-1.97461457644551,0.544671462002628,-0.482308467726923,-1.39316462399796,1.03868560327211,0.817635233588797
238.640239669422,74,3.11784865123959,-1.08554207644879,-0.145867644145805,-0.358929744786513,-0.999869364793119,0.423887023057696,-0.0591495006774606
239.642929752066,74.9413099173535,2.99992227061981,-0.977828321410033,-0.00804461004634957,-0.408188998451301,-0.979278015500347,0.0863615397436324,-0.159028600809414
240.645619834711,75,2.88199588999991,-0.92099500000206,-0.395161899958766,-0.146956599996703,-0.851020620002239,-1.00705235998313,-0.302354323999505
241.648309917356,74.0533099173572,2.76406950938012,-1.87048491900544,-2.16023756859502,1.23834763306168,-1.38913156786079,1.69315138564881,0.615153959820227
242.651000000001,74,2.9719899342152,-0.697303232033822,0.368052855857536,-0.294106169967188,-0.69440297864717,-0.250443231960058,-0.205089966807323
243.653690082645,74,3.35182899132248,-1.24048240206987,-0.244349445538801,-1.04658491115133,-1.50833180662055,-0.341469819048627,0.0286402067727289
244.656380165289,74,3.5390891746281,-1.18422170799926,-0.0732799234127092,-0.202946374634831,-0.994858880161712,0.19344476135861,0.0751775557159602
245.659070247934,73.0425495867785,3.62713539078517,-1.07739423553734,0.0417561827890829,-0.0400516875214984,-1.00484095330942,0.0769911372248456,-0.066108076235541
246.661760330579,73.9601404958657,3.71518160694216,-1.0252167057849,-0.29446243148873,-0.748920895042084,-0.926883121098608,-0.937122659551369,-0.504275582530758
247.664450413224,74,3.71220365267766,-1.80993191775896,-2.00351950576965,1.14659524962506,-1.14359136714651,1.62396546732974,1.00200456738072
248.667140495868,74,3.66399297658401,-0.590398225634057,0.497546188420394,-0.0173185494000176,-0.978980366934049,-0.282243801652093,-0.169761088463438
249.669830578513,74.9682107438002,3.61578230049032,-1.74265933882872,0.0217393926525077,-0.387037019635812,-1.05974317490434,0.189966592238815,0.232129052296396
250.672520661157,75,3.56757162439668,-1.17310511776991,-0.0524829803392226,-0.155179420247417,-0.981758626543769,0.382037591716027,0.0466305145352472
251.675210743802,75.9735909090896,3.51936094830299,-1.03315958522652,-0.00840898622027912,-0.426717206827018,-1.01134903181767,0.117418281818084,0.00336002681936302
252.677900826447,76,3.47115027220935,-0.917171843550836,-0.365898083022721,0.0136620804354964,-0.954203128960458,0.21965030414481,-0.0882740593190324
253.680590909092,76,3.42293959611566,-1.83052698315024,-1.75661853282496,0.962596155891045,-0.8265219280773,0.126851380298285,0.0650833646174228
254.683280991736,76,3.37472892002201,-1.41344445250211,0.244331509296877,-0.14068400826442,-0.428599560958114,-0.561972549586022,-0.489062367724163
255.68597107438,76,3.32651824392837,-0.689171875528607,0.252637172635047,-0.594236261784805,-1.72733326859451,-0.235103848989996,0.090746677210276
256.688661157025,75.0129586776875,3.27830756783468,-1.38097904133483,-0.166969491066473,-0.183442267102875,-1.24026738844173,0.326945672739686,-0.0671172875681699
257.69135123967,74.0102685950433,3.23009689174104,-0.92453009504016,-0.147647871074358,-0.178871701445417,-0.947802484572547,0.126895307548625,-0.0551189751664587
258.694041322315,74,3.18188621564735,-0.964530100824331,0.0455993518994964,-0.242678445770882,-1.18403382643589,-0.0419376110335584,-0.0865796799113767
259.696731404959,74,3.1336755395537,-1.39623931818652,0.72554190194005,-0.316588202355098,-0.864854250032387,-0.723412070227967,-0.0742944666356597
260.699421487604,74,3.08546486346002,-1.54172204958316,0.0433316224829171,-0.216128059091231,-0.503928861155255,-0.558457978520527,-0.345261753727904
261.702111570248,75,3.03725418736637,-0.0861508968273552,0.449791685712864,-0.219965777754844,-1.12795242314427,-0.324058718078953,-0.0811719129138616
262.704801652893,74.9968181818194,3.07064198181824,-1.83320745456845,0.24478043183676,-0.399298249991018,-1.35234895454183,0.833063363662301,-0.00177258377473041
263.707491735538,74.0058719008248,3.13763839084025,-1.03365431456637,-0.0170415340012353,-0.278908458054018,-0.986605282437174,0.372612975210353,0.0610191054774639
264.710181818182,74.991438016531,3.20463479986226,-1.05471173553266,-0.0915896892496343,-0.179347896699207,-0.968775578513841,0.0948606859792741,-0.158649
265.712871900827,74,3.37541815360343,-1.16488620974723,-0.20453461923219,-0.368822099326764,-0.872026685367984,-0.322636031411548,-0.179811306614688
266.715561983471,74,3.58730261110748,-1.98186,-0.963989641803793,-0.299220992568981,-0.745505469857567,0.0926494382168029,0.266031978102959
267.718252066116,74,3.79918706861172,-0.434672101800634,0.254627946801791,-0.262870085746948,-0.832299353040642,-0.248407495040751,-0.472704766722182
268.720942148761,74,4.01107152611576,-1.91247833552092,0.263063716596421,-0.857991495200321,-1.41131948757544,0.722898684226534,1.15563742134358
269.723632231406,74,4.22295598362,-1.13667927686537,0.059058186564272,-0.276259725246769,-0.928782269282369,0.688600710056247,-0.0159734593002438
270.72632231405,74.0247024793371,3.57879536925584,-1.00060500330458,0.00801013114827241,-0.242008334697114,-1.01769617217644,0.0882643091182097,-0.174290479681622
271.729012396695,75,2.61759660223056,-0.940354037204219,-0.510260856695829,-0.371308704727164,-1.00020551272801,-0.818676788480725,-0.233110459446129
272.731702479339,75,1.65639783520616,-1.98289,-1.4192170578508,-0.0606648525647098,-1.09507786613405,0.690150075968853,0.476236054480125
273.734392561983,75,1.7703403636364,-0.380120146367912,0.375065269089762,-0.229696511814807,-0.849182770622473,-0.306959337205341,-0.183216849849371
274.737082644629,75,2.2663912013226,-1.24707464878195,0.140585094991604,-0.642548479320676,-1.54985747938709,-0.668937367756142,0.179787884301652
275.739772727273,75,2.70048505983478,-1.09449188325532,-0.0153364358253057,-0.382793942563558,-0.961217199313298,0.609052700035861,0.235832352253452
276.742462809918,75,3.11316555944931,-1.04783041322537,-0.0117718694935828,-0.123140421486824,-1.00561379614625,0.107227775364705,-0.0937576498991637
277.745152892562,75.0435330578493,3.52584605906347,-0.955666834856228,-0.260236496825685,-0.1144555658226,-1.07391270665313,0.226531602074436,-0.0992966955047903
278.747842975207,76,3.51899884462799,-1.48932380991658,-0.793792080176849,1.17299242459565,-1.0466141022712,0.749285722512659,0.145938930969648
279.750533057851,75.9510867768613,3.37320436431124,-1.19506989673108,0.173057097124804,-0.315703196752206,-0.557399599688115,-0.433506605373746,-0.431609823350005
280.753223140497,75.0516033057838,3.22740988399437,-1.4999555151924,-0.204488234659418,-0.64365994061038,-1.12214350408136,0.0183383122720016,0.253572717087189
281.755913223141,75.9457066115719,3.11630246809913,-1.1156577252087,-0.0747146850309316,-0.25731256796797,-0.965811532889242,0.238458948580803,0.0414381635948757
282.758603305786,75,3.01619389024784,-0.990779169836953,-0.0590685900637647,-0.21564518532504,-0.978837385738292,0.103907279617405,-0.220394530856075
283.76129338843,75.0596735537174,2.91608531239664,-1.10405215289743,-0.597952493000066,-0.140193144691356,-1.04098218675836,-1.56601419424458,-0.344411334300267
284.763983471074,76,2.81597673454544,-1.96163886363693,-1.4070090909313,0.337895272740807,-0.991478863645097,1.32858454556485,0.744300227314973
285.76667355372,75.9349462809932,2.71586815669415,-0.423490567560129,0.331015900620311,-0.151608265908965,-1.08913142021857,-0.312044195763749,-0.13788494930116
286.769363636364,75,3.00523878281001,-1.97620967768567,0.335051368610407,-0.545195740510158,-1.3213160239674,0.737591889664016,1.13181235406596
287.772053719009,75.0704338842961,3.40920256330608,-1.03127230868331,-0.143534190354197,-0.255148052333963,-1.05739015702018,0.413716519432557,-0.0114037588940468
288.774743801653,76,3.6099700545455,-0.935090664464558,-0.0654410778473034,-0.229565540492744,-0.987257877686373,0.0511521502472095,-0.136885029667258
289.777433884298,76,3.75276649151527,-1.09178051450411,-0.56248274391415,-0.473528975216981,-1.21945883264321,-0.943521487645135,-0.222593410147194
290.780123966942,76,3.89556292848491,-1.98186,-0.539775887049622,-0.197622030997963,-0.611813252489182,-0.129583154653707,0.253435146234909
291.782814049588,76,3.78638943884281,-0.608635730187635,0.292701290895278,-0.221794213229992,-0.803994157010305,-0.233318894420296,-0.206748238226106
292.785504132232,75.916115702481,3.60864591019274,-1.77866314458656,-0.0554622045542868,-0.735506140467455,-1.4082682479353,0.711101395014753,0.780735201655823
293.788194214876,75,3.43090238154268,-1.1474601483422,-0.062609407295053,-0.41329379278232,-0.919360737328182,0.344343360038133,0.147335581359327
294.790884297521,75,3.42278043586779,-1.04062623967424,-0.0100934469636796,-0.0719479719055328,-1.02525826445489,-0.00262484938104116,0.0930196247866867
295.793574380165,75,3.45863161977273,-1.05226560453858,-0.34984790680305,-0.221912246359233,-1.03859718928377,-0.636011175361631,-0.463919267506552
296.796264462811,75,3.40042984768589,-1.4962682809614,-0.137881561128341,1.00672046772204,-0.959139872689975,0.448920933650826,0.120848558059346
297.798954545455,75.097334710742,3.3186404176446,-1.08568750827006,0.239658571073811,-0.341393718183757,-0.430065761568673,-0.512394503307671,-0.297095195038984
298.8016446281,76,3.2684083471074,-0.505757696073924,0.239857838221606,-0.684862359555563,-1.75061312119651,-0.164273552065631,0.0270240510193952
299.804334710744,76,3.22582744159778,-1.73360272935687,0.0568540661169779,-0.373277482236149,-1.32648708677511,0.849959975196094,0.0199516650827739
300.807024793389,76,3.18324653608812,-0.977704115703246,-0.062654250415323,-0.238246066114385,-0.918012224519299,0.227560306623876,-0.0577604135972179
301.809714876033,76,3.11810923380162,-0.97807819867343,0.0271593620938122,-0.299831915664063,-1.14733649723854,-0.135640192750218,-0.0789425060620962
302.812404958678,76.1107851239649,3.04778055140495,-1.32707359916064,1.39860354688663,-0.655595374431669,-1.32852451238075,0.0247816350247292,0.437809140476965
303.815095041323,77,2.87195243202467,-1.98142321074446,-0.414893309063479,-0.102093481554523,-0.62003154029777,-0.323281193540374,0.0695835038769593
304.817785123967,77,2.67269451650134,-0.131944264875567,0.55105195041362,0.0542579685950944,-0.968303658399238,-0.316379699723467,-0.106583879890704
305.820475206612,77,2.47343660097782,-1.90759830337929,0.347104215983702,-0.425513691467933,-1.31405534297673,0.78940363823238,0.126577538976268
306.823165289256,77,2.70453348000009,-1.03253820908822,-0.0983673285521031,-0.134703790000149,-0.965667010230248,0.175185090345999,0.0341339161001498
307.825855371902,77,3.02608282030329,-1.0999057810084,-0.189250462273519,-0.175960060338255,-0.951633535331007,0.135642842705129,-0.128705314504232
308.828545454546,77,3.34763216060619,-0.871730570249151,-0.0337291881014263,-0.313892828301393,-1.19503104133519,1.24129722386028,0.413589583742014
309.831235537191,77,3.59235368659111,-1.98368051652877,-1.41712736227689,-0.221859057141755,-1.23983700408566,0.617954992941861,0.315384976345684
310.833925619835,76.8676942148777,3.82182432545466,-0.710487534719821,0.265493652480354,-0.30487220163867,-0.685466167357425,-0.299581854544743,-0.469340833052741
311.83661570248,76,3.69368107603286,-1.27313627271027,-0.0940419796514233,-0.625172841983926,-1.1358710322422,-0.603683084057482,0.154075162284398
312.839305785124,76,3.49728751184562,-1.28539748523939,0.0168069571927373,-0.0997739213202514,-0.965362357122142,0.223434173831807,0.101755874104565
313.841995867769,76,3.30089394765837,-1.05414200671484,-0.0306002763264075,-0.0748978677171262,-0.979318858139516,0.0927634281280865,0.0436662162211203
314.844685950414,76,3.17125890909083,-1.00767168802264,-0.066549012804567,-0.206880925634078,-0.949424519627878,0.0396661941110252,-0.0890057955572788
315.847376033058,76,3.05360993939391,-1.73238726857148,-0.72074694732055,-0.114450470079629,-1.2275024862376,0.96339080317148,0.923965344649489
316.850066115703,76,2.93596096969688,-1.98250409504131,-0.893428268591838,-0.110911840331421,-0.68069592562072,-0.148648328914938,0.214280491187449
317.852756198347,76.1511363636346,3.12571217795463,-0.154527953034474,0.484684542408488,-0.215538834844207,-1.01637623272688,-0.27653078272717,-0.216107073636553
318.855446280993,77.1538264462797,3.36724517851261,-1.9774816123967,0.383999891486356,-0.550865030240891,-1.40461106921335,0.929629349070842,0.811279630631767
319.858136363637,78.1565165289239,3.38373857566115,-1.12776084710599,0.02779606663407,-0.434589903925117,-0.959166350206069,0.569084888429018,0.0316176986572482
320.860826446282,79.1592066115691,3.36396218493111,-1.01289198677797,-0.092011537715997,-0.138557092230077,-0.984041311294691,0.119537207547071,-0.19283157630817
321.863516528926,80.1618966942133,3.34418579420109,-1.16926127695863,-0.257197360215468,-0.0371114003290001,-1.00279418072603,-0.616003778053478,-0.252385041186273
322.866206611571,81,3.26953139471066,-1.8378795397672,-1.62171774857558,2.31363165533554,-1.31626899590154,1.84816966944813,0.514386904940135
323.868896694215,81,3.18662229407708,-0.588121176224824,0.221527158285296,-0.217355615951963,-0.722604607739343,-0.220359508064799,-0.260179864484368
324.87158677686,81,3.10371319344351,-1.77260166470019,-0.33498601864639,-0.705294838242755,-1.13027112947827,-0.0128053884229808,0.155866962814897
325.874276859505,80.827342975208,3.1331905403926,-1.4949175222046,-0.15528425206472,-0.0229734863446141,-1.09087373904759,0.201312670866583,0.0477820437193483
326.876966942149,79.8246528925638,3.17838679586778,-1.04378318311697,-0.0560356021484869,-0.424959773233994,-0.972113033747005,0.0687609350558127,0.043256005096922
327.879657024794,79,3.23360314739674,-0.948531721896417,0.0541066963298866,-0.0722224088833831,-1.10523403864393,-0.0312436974701271,-0.287536243823402
328.882347107438,79,3.2901515257576,-1.4826987272855,-0.69080563643969,0.431384218227009,-0.994145587895219,-0.63759108373949,0.0497686933291327
329.885037190083,78.8165826446293,3.34669990411851,-1.55861017913172,0.231828753784822,-0.277763656323821,-0.450129293343068,-0.595637182905731,-0.487053402977774
330.887727272728,78,3.42445809561988,-0.221745651543144,0.323986710182227,-0.859974941888503,-1.49456530993049,-0.599543151656563,0.01457911898613
331.890417355373,78,3.50481869229347,-1.61757353824109,0.0266902813942442,-0.16774064898665,-0.97571683029655,0.122607668019842,-0.01756156838286
332.893107438017,78,3.53085523099175,-1.02658674819202,-0.0359657393984991,-0.411228694853941,-0.944881273549232,0.0859794692470766,-0.0543280247908248
333.895797520661,77.611644628103,3.55059151411846,-1.09707381499617,0.0946397753868043,-0.124623605423967,-1.215035696282,0.114939751648956,-0.0357283312366795
334.898487603306,76,3.57032779724519,-1.44138741739215,0.321719949172759,0.17109258268301,-1.21780404959546,0.275790454685912,0.399151958716208
335.901177685951,75.8004421487622,3.46033565185946,-1.77304042152335,0.0282516561586377,-0.197617871905415,-0.485427427691447,-0.566067,-0.211546615273294
336.903867768596,75,3.33658698415968,0.0321946255867144,0.620986245720298,-0.37839942864879,-1.08692658263541,-0.277437832233782,-0.128046038608543
337.90655785124,74.7950619834728,3.21283831646,-1.60929281680355,-0.0476547088569789,-0.0994806313086719,-1.1738581412706,0.466460562190026,-0.0225994244886379
338.909247933885,74,3.37603516012414,-0.993152452474449,-0.0673807333327444,-0.43196088472794,-0.892843026451869,0.553942457023979,0.122479792064605
339.911938016529,74,3.56685961647737,-1.04513102525222,0.015185313129084,-0.367144043938771,-1.01646394571121,0.00999456388937067,-0.0924679334834098
340.914628099174,74,3.75768407283077,-1.70497421487353,0.0317523480946377,0.387770386438267,-1.50694214877396,0.493879235011369,0.545584700865169
341.917318181819,74,3.948508529184,-1.89331164769967,-0.296575296825992,-0.128591058812608,-0.531700292561555,-0.510436328815459,-0.285012151298288
342.920008264463,74.4367768595002,3.45396949322303,-0.440067617308134,0.538894231503905,-0.638959124412242,-1.77818433470068,-0.40388377495088,0.123816427115658
343.922698347108,76,2.90217911384258,-1.78456863098603,0.191748036575046,-0.266246435474738,-1.27621868078288,0.55775816175706,0.0303577545577016
344.925388429752,76,2.35038873446264,-1.04022608815522,-0.0604003553700688,-0.101053830578091,-0.930793528926316,0.3097452892508,-0.06219073884703
345.928078512397,76,2.3423815962397,-0.960808019446437,0.0209503668134359,-0.0612633020234451,-0.973538182231496,-0.0265514714050615,-0.0270534269214908
346.930768595042,76,2.37470498220387,-1.6471725454773,1.68086613932684,0.362145621791376,-1.2811043223141,0.0484852334712812,0.549109036570379
347.933458677687,76.231838842974,2.40702836816807,-1.77936534300761,0.0522308423709575,-0.34426646733646,-0.476209469213901,-0.599875915703202,-0.196788287804789
348.936148760331,76.7654710743818,2.69910860020677,0.0209212315961928,0.76144693885222,-0.396824680981033,-1.210457312949,-0.255162661543231,0.036062185323525
349.938838842976,76,3.0080624819218,-1.73181732441981,0.10828872623957,-0.144275543796954,-1.35022951790273,0.562925627401718,0.110940530990183
350.94152892562,76.2399090909075,3.2058539709092,-1.02656819999919,-0.0731016412112123,-0.401499305750288,-0.941013590905835,0.23542894637792,-0.129580109995532
351.944219008265,77,3.39709705037211,-1.07800235512365,0.00519605524909289,-0.0978220972175678,-0.999099427197788,-0.468676307591706,-0.44131391903095
352.94690909091,77,3.26465701165279,-1.6226225826353,-1.06236666110663,1.21957549750387,-0.730187981821119,-0.7325448487384,-0.110369587596656
353.949599173554,77,3.11508573202475,-0.781682287040848,0.231103444907642,-0.507748292014173,-0.841155666616222,-0.200669050612529,-0.227961141305396
354.952289256199,77,2.96551445239658,-1.29569586569745,-0.143855735531558,-0.66290003099182,-1.25995181817565,-0.455457130854204,0.045785837862028
355.954979338843,77,2.6150599734916,-1.19545382507081,-0.0592620104779451,-0.104445870942413,-0.968134059501811,0.379095400390169,0.0417253948132006
356.957669421488,77,2.25575099582613,-1.02215658182715,-0.0781300191712394,-0.144815051893996,-0.972935595043115,0.136252098512888,-0.0777932602648542
357.960359504133,77,2.70085970450436,-1.33881822596483,-0.0525548369458171,0.40180856889565,-1.18014371795985,0.334633382926829,0.63932442657181
358.963049586778,77,3.17674644462856,-1.98186,-0.376659162016679,-0.292017559087628,-0.61203435137829,-0.0834923699031155,0.287335807054797
359.965739669422,77,3.26795319582649,-0.104753257495768,0.614231042344219,-0.335581170962864,-1.15548147210552,-0.179445883781617,-0.035907471127615
360.968429752067,77,3.34665434041331,-1.97771,0.516523671884268,-0.613087019008415,-1.3654674104428,0.738700072281548,0.130150503414448
361.971119834711,77,3.33146500999999,-0.978833979998108,-0.0571539208001348,-0.314054664002638,-0.961232600003798,0.505363750014082,0.0297508983326052
362.973809917356,77,3.31375750314049,-1.34733435484614,-0.199573449369206,-0.600861445386563,-2.00280857864862,-0.18243922186441,0.0622521221818891
363.976500000001,76.7251198347121,3.38725684483477,-1.03944764150204,-0.280330511901146,-0.501238044886436,-2.0066338596782,-0.231347542538465,0.0731541363876148
364.979190082645,76,3.46268921975209,-0.731560928158221,-0.361087574433014,-0.4016146443864,-2.01045914070777,-0.280255863212476,0.0840561505933307
365.98188016529,76,3.53812159466949,-0.423674214814122,-0.441844636964954,-0.301991243886273,-2.01428442173735,-0.329164183886531,0.0949581647990564
366.984570247934,76,3.59940262842978,-0.115787501470302,-0.522601699496821,-0.202367843386236,-2.01810970276693,-0.378072504560542,0.105860179004772
367.987260330579,75.7143595041334,3.66050154861576,-1.9815365323689,-2.04827231753178,1.02244698791642,-1.15879963004014,1.24948767490248,0.940179195638306
368.989950413224,75.2883305785108,3.58614095371897,-1.98374879752076,-0.818485759428168,0.0366869893802254,-0.475959355378047,-0.216442500805356,0.0886555981820099
369.992640495869,76.2910206611559,3.51077876710736,-1.98224571797515,-0.75854753567644,-0.0846882710893804,-0.585870859494132,-0.291238670984624,0.255600972099176
370.995330578513,77.2937107438001,3.51648415785124,-1.98186,-0.828941095237174,0.244719980136639,-0.510978528374734,-0.504421677408423,0.133804316586594
371.998020661157,78.2964008264444,3.52256869267219,-1.98202138567492,-1.79105398949518,1.37583087999793,-1.17413110048241,0.956329529013696,0.859614159828794
373.000710743802,79.2990909090895,3.59294416727278,-1.98198672727279,-2.16006,0.796560218163435,-1.31647400001129,1.41144076368844,0.587345000001319
374.003400826447,80,3.6633196418733,-1.98377969421479,-1.88811641634815,0.507546332575999,-1.30827574837273,0.965535263268224,0.5645726929911
375.006090909092,80.3044710743789,3.73387720066123,-1.98261281508266,-1.34858346802096,-0.221929981381083,-0.553680268589932,-0.122666527276448,0.305057371897926
376.008780991736,81.6143223140461,3.82016870917359,-1.98283314669426,-1.85308346071772,1.01713038198056,-1.01430909649351,0.516785770489396,0.230832801542125
377.011471074381,83,3.90405857900821,-1.98145947107426,-2.14993299173742,0.858787057908986,-1.53624926459732,1.52303819242592,0.53359805596451
378.014161157025,83.3125413223124,3.84744669694212,-1.98093990082647,-2.11342203718131,1.24815805536235,-1.42875425895899,1.64877477002289,0.77082671653395
379.01685123967,84.3152314049576,3.79083481487597,-1.98177690330569,-2.03757255207792,1.4344504581939,-1.65380264193203,1.68369252907852,0.684462699467897
380.019541322315,85,3.73030377966929,-1.9825008873967,-0.27902667976036,-0.186562184708988,-0.255208,-0.756300548461397,-0.177903653722026
381.02223140496,85.3206115702469,3.51600885520637,-1.982612495868,-2.16109,1.44103899195072,-1.58048841322599,2.01855565289207,0.526829561982061
382.024921487604,86,3.31234819482104,-1.98069270926799,-2.16083541853598,1.49261401094335,-1.69702091938426,1.68162840698587,0.422885903315989
383.027611570248,86.3259917355354,3.44994401256203,-1.57939627943477,-0.621496032897577,0.883424310997171,-0.729524265507651,0.371266774894258,0.0892333523369923
384.030301652893,87,3.58753983030314,-1.83413084082369,-1.94875515874255,1.49005205923359,-0.537898656375673,-0.349291409156409,-0.178582019106612
385.032991735538,87,3.72798834305794,-1.95526917355171,-2.10010884297061,1.59505793386835,-0.842881794420691,-0.381223248987467,-0.261385966957341
386.035681818183,87,3.94012748384317,-1.64273434962371,1.51668329227829,-1.148685496817,-1.42234134760159,0.0237638264232942,0.620963002413131
387.038371900827,87,4.14657900187332,-1.96023361569499,-0.0783089816057019,1.05591892694902,-1.98496951239511,1.21095262195568,1.72017021251904
388.041061983472,86.6605578512408,4.22837177421496,-1.52299115907641,-1.91540311314554,0.429166922301196,-1.68213444604138,1.97821916112559,1.32329842646206
389.043752066116,85.6578677685966,4.31016454655652,-1.93174674047907,-1.93484349941587,0.564537782768332,-1.42164413323447,1.42954413404242,0.214564273052663
390.046442148761,84.3103553719029,4.39478897650842,-1.3092640289066,-0.691949346624846,0.119468236646108,-1.01620996901956,-2.13354773966951,-0.572024072365694
391.049132231406,82.3049752066145,4.5313704061158,-0.940153951121171,-0.337734207444116,-0.189321605582393,-0.951776334526928,-1.64427290505512,-1.04241972064342
392.05182231405,80.649797520663,4.66795183572318,-1.02736941710556,-1.02478397224087,-0.378788243550068,-1.04408922863305,-1.27802861989996,-1.74839236908851
393.054512396695,80,4.80453326533069,-1.19698756250033,0.118701528021298,0.0732356555989438,-1.04082846150541,-1.72107529468655,-0.943854908170755
394.057202479339,79.6444173553737,4.904000787672,-1.18985603845842,-0.860444169768419,-0.266323271271271,-1.12417859504111,-0.797288046781633,-1.13174896115136
395.059892561984,79,4.44594856181777,-1.30960647726409,-0.732643613551344,-0.0855483443141421,-1.15232837663487,0.362721458486346,-0.432346636360888
396.062582644628,79.3609628099157,3.98789633596396,-1.09604661610853,-0.649449269813815,-0.708671313195193,-1.14896525413179,0.473498805579807,-0.609788561797741
397.065272727274,80,3.54904850834692,-1.27079164048921,-0.385271587969102,-0.0959952058779922,-1.10799099172881,0.337645252213503,-0.450060623485281
398.067962809918,79.633657024795,3.36354081615692,-1.04777941818626,0.116397917961279,-0.029265482538814,-1.23214270352251,-0.202266100178797,-0.316400852341784
399.070652892563,78.6309669421498,3.21079500826473,-1.02089578914904,0.0442858111946895,-0.272681221508172,-1.14445878158221,-0.0362889652266953,-0.208026354601474
400.073342975207,78,3.45733644578529,-1.00341331405044,0.14594250370145,-0.171068478822534,-1.13234978305566,-0.102895608470286,-0.0036828735471142
401.076033057852,78,3.72326888479396,-1.12223022574289,0.154784319715255,0.0917865812827626,-1.0573861322247,-0.14486576926044,0.070181111884593
402.078723140497,78,4.20863104619872,-0.996540781940661,-0.0529221308302272,-0.305864956782171,-0.969382918582242,-0.00155686462883682,-0.0601558965302397
403.081413223141,78,4.61663078876018,-0.919594223581669,-0.0137478638253336,-0.5269515477725,-1.00904958677026,0.0215785322389106,0.0489515256053593
404.084103305786,78.3824834710731,4.20825517190047,-1.00605017685867,-0.110917393606602,-0.167908454153204,-0.971922739445993,0.0347737222977786,0.0403686850397661
405.08679338843,78.6148264462827,3.85679764619845,-0.956377741323789,-0.0767824507455815,-0.259928271744269,-0.92811152066214,0.0346172818167102,-0.0372535024782064
406.089483471075,78,4.06759318227293,-1.01950588454479,-0.239574373497761,-0.31120169363797,-1.02680154771245,-0.0753446452113571,0.0619987404601512
407.092173553719,78.3905537190067,4.27838871834723,-1.04937799999682,-0.210913735539772,-0.255232649529164,-1.06430711565877,-0.117530665692391,0.0354044241966276
408.094863636365,79.3932438016518,4.46732859956611,-1.05225623104956,-0.0458581942510719,-0.0361690705713879,-0.907588214753838,0.054921926024302,-0.186896074465677
409.097553719009,80,4.4595126303719,-0.95718535670227,0.182443270706396,-0.202546319717627,-0.907153574654732,0.0291631541548954,0.0141530022031354
410.100243801654,80.3986239669412,4.46307077805797,-0.943785225183139,-0.098392596742604,-0.308938546428491,-0.906723441092276,0.0403127841966777,-0.193547456775419
411.102933884298,81,4.5632294904133,-0.98706638774111,0.0454210343568132,-0.505611406822181,-0.858321027696126,0.0755907414362368,-0.0969048255883517
412.105623966942,81,4.6492777274931,-0.90524281260812,-0.164118056460885,-0.411766598368338,-0.879686723966297,-0.0827954268668286,-0.0727418272122716
413.108314049588,81,4.62197781884295,-1.03691876485296,-0.0921480956621381,-0.39269386348125,-0.905158712386993,0.0573260223198927,-0.0382466076189773
414.111004132232,80.590615702481,4.59467791019283,-1.02018490702714,-0.0668370660853237,-0.353197272869931,-0.890174453832867,0.0496261656926583,-0.190078165422353
415.113694214877,79.5879256198359,4.5595143294765,-0.983993107436874,-0.150157890817629,-0.673556317261682,-0.914306889809222,-0.0283973298833373,-0.0872758863775469
416.116384297521,78.5852355371917,4.46599676776854,-0.984532223973925,-0.0138403593035865,-0.3031257306125,-0.892493856007279,0.0453903097453228,-0.235112549153227
417.119074380166,78,4.37247920606051,-0.977340963641347,0.0636784690770197,-0.205928733072575,-0.864280327282039,0.042000445453765,-0.107750636362773
418.12176446281,78,4.2861563350413,-0.951601710342382,0.013393511121993,-0.185922831386265,-0.853573831599365,0.0214673002444445,-0.084059928929735
419.124454545456,78,4.24937766280988,-0.962760997383976,-0.08437712880168,-0.205909691155429,-0.824957541046574,0.101243175481839,-0.157235291184848
420.1271446281,77.574475206613,4.23017089468327,-0.928968373287625,-0.0283755523812774,-0.567113068702516,-0.864706755682026,0.0335555237071825,-0.136370043185651
421.129834710745,76.5717851239679,4.32634224281004,-1.04290833720833,-0.0801557896966786,-0.0633387713227395,-0.893273034710675,0.263336682644266,-0.0383229533889726
422.132524793389,76,4.42251359093672,-1.0572245681743,-0.0222168211986803,-0.0541640367684315,-0.894297730997705,0.115077853228001,-0.0875496093273336
423.135214876033,75.5664049586794,4.5061567492562,-1.0328269148919,-0.199746273426298,0.0247282921919614,-0.987414609199945,0.0690442824074744,-0.0065552952777629
424.137904958679,75,4.5129800552686,-1.08313599483449,-0.0788854593891684,-0.150335388315909,-0.9725607234541,0.298269599166656,0.107264405098997
425.140595041323,75,4.52571997969699,-1.0855047004134,-0.209331637824781,-0.178072437000571,-0.986819119827734,0.117342689305074,0.0365514826576177
426.143285123968,75,4.57318398590914,-1.04892260640032,-0.219528975994613,-0.245907030023272,-1.01138655731392,0.14251441732419,0.0819718009754588
427.145975206612,75,4.62064799212124,-1.01068770989997,0.0579293169071249,-0.45786745584907,-0.882980644765524,-0.0308319447090292,-0.0649145517894109
428.148665289257,75,4.68942084931839,-1.03241920909005,-0.0570555581884595,-0.178056813634175,-0.982099868184313,0.556198110794535,0.264986411359169
429.151355371901,74.5502644628114,4.87558530351253,-1.05415662398178,0.0686631119416664,-0.386605026442865,-0.888783093296591,0.628365831955992,0.454198784462867
430.154045454547,73.5475743801662,4.96753718766479,-1.04186359022174,0.13025128857438,-0.16636441322145,-0.901884040295811,1.10243022007642,0.113155231912773
431.156735537191,73,4.56116193752033,-1.11346121212215,0.188260927165294,-0.147005219144379,-0.837349145245235,0.937220472122154,0.302672214465422
432.159425619835,73,4.28171557091957,-1.14280437913469,-0.017886277208774,-0.367963707581204,-1.01036319917666,0.62414755744229,0.0931640845859217
433.16211570248,73,4.64758464845074,-1.15683871983108,0.160054868551416,-0.314266897523852,-0.949877421485532,0.69490746446841,0.0768265907390517
434.164805785124,73.4631859504116,5.01345372598159,-1.29811901792262,0.00236645058405916,-0.278135381131363,-0.909579028933653,0.414274412211156,0.107811615499157
435.16749586777,74,5.37932280351276,-1.52747865186153,0.123601919938474,-0.256714107951919,-1.17740086774757,0.309004631228986,0.220247059907403
436.170185950414,74,5.56681363508226,-1.54781245524093,0.00727550576850935,-0.0989989664126542,-0.925386428208676,0.71414437988265,0.173309309671688
437.172876033059,73.5287438016539,4.91393204156953,-1.55184748486218,-0.0141204504365513,-0.228578145390556,-1.16895404958056,0.426914674362897,0.190480008244841
438.175566115703,73,4.2610504480574,-1.54202560337022,0.12354248976915,-0.0922403747651094,-1.24825070403317,0.535101031884542,0.173175302118023
439.178256198348,72.5233636363646,3.79104771818223,-1.96956400000096,0.166387409143053,-0.271524830315219,-1.24758445455138,0.44667533364698,0.469454510929726
440.180946280992,71.5206735537204,4.13672011072341,-1.89260377583172,0.255647475938461,-0.247676889058714,-1.34573766533021,1.03462220055295,0.356467737630714
441.183636363637,71,4.36711982801643,-1.81814853996692,0.272022606881354,-0.247121489840696,-1.47593913499232,1.76144703583818,0.236217373549001
442.186326446282,71,4.10129666020638,-1.94020637674105,0.415919279646959,-0.273590226329568,-1.09712741322762,1.09700229715031,0.621812247800421
443.189016528926,71,3.85479846776852,-1.97568269834507,0.83912177263704,-0.827995144588538,-1.64490613636846,0.632696223408642,0.44264517216435
444.191706611571,71.4900867768583,3.68865272107422,-0.443325170248815,0.667939856016958,-0.709056545652986,-1.60538745179952,-0.258977533220303,-0.19591442453508
445.194396694215,72,3.61860363933902,-0.797029933858484,0.208844450176131,-0.472125579546095,-1.80903818181843,0.0299772437940081,-0.14841357765672
446.19708677686,72,3.93477187619869,-0.148968700210173,0.512747476242757,-0.751240891325116,-1.69058057573679,-0.0739273198606725,0.134684169832295
447.199776859505,72,4.2856988419838,-0.703800611869049,0.502998067896215,-0.157273440911676,-0.640413247110024,-0.310650008265958,-0.311263291737165
448.20246694215,72,4.77174784609561,-1.37592725623207,0.224433264696991,-0.00584777555702256,-0.215149658960025,-0.337832945792045,-0.385509797157182
449.205157024794,72,5.24273396694247,-1.98301806611548,-1.46239944971682,0.384579219842611,-0.404967243795698,0.0185440470722582,0.207417000164176
450.207847107439,72,5.65704550909143,-1.98185755681818,-2.06175267047051,1.09642072730056,-0.625497159243094,0.0177377762929183,0.081069160231995
451.210537190083,72.5089173553706,5.98218390319559,-1.92092237602553,-2.15909426859479,1.2471058351934,-1.71907340495883,1.49160386776919,0.208738116528618
452.213227272728,73.5116074380148,5.9823877835124,-1.98127682644595,-2.16006,1.00172320912225,-1.61145637190095,1.55949970680933,0.703715499590912
453.215917355373,74,5.9825916638292,-1.98099620661131,-2.16014767768582,1.48081328523911,-1.46410536462815,1.29385434639373,0.799622615206718
454.218607438017,74,5.89702210464855,-1.97717716115699,-2.16058771539259,2.38368459942804,-1.26891489655094,1.40291019072683,0.467050931611156
455.221297520662,74.5196776859493,5.51325751586736,-1.98246154958645,-2.00709903923398,1.76032589164103,-1.48884841944751,1.61340012408282,0.517654004182258
456.223987603306,74.4776322314065,5.07335516572273,-1.94198251754788,-2.15956808987585,0.721595850223592,-1.18437352661091,1.10474967811462,0.303251074780778
457.226677685951,73.4749421487613,4.44418217921415,-1.97584394215238,-2.16106573966945,0.524126926512302,-0.899381161995258,1.28727813224756,0.438890775210692
458.229367768596,73.5277479338829,4.10612010551699,-1.80721773698064,1.93502183716338,0.318986723969524,-0.814426555812227,-0.684408295831927,-0.289520399151325
459.23205785124,73.4695619834729,4.72038309049608,-1.91359459172739,0.446080595340216,0.120278173054678,-1.45195298136202,0.442980285679576,0.530615597273965
460.234747933885,73,5.20465392962816,-1.75763824379046,-1.60145415281834,0.459849743780721,-1.98042545896918,1.88861216499482,1.34594204028413
461.237438016529,73,5.27611565181821,-1.71969419999109,-1.06285415453934,0.399209669084289,-1.30166473627691,0.824028954391469,1.22195006353533
462.240128099174,73,5.3677827041737,-1.24809575313538,-0.397572535007319,-0.30289178519459,-0.61676129783883,-1.25529640982668,-0.34798555882958
463.242818181819,73,5.52176582016537,-0.948856046585749,0.235845282280981,-0.027311086837322,-0.861187738201201,-0.889020582799794,-0.0718434682038961
464.245508264464,73,5.55471868505476,-0.977493632128353,-0.35204613999818,-0.26200207742765,-1.07959250739613,0.541286388228162,0.07049616493743
465.248198347108,73.5465785123952,5.22499742057831,-1.84747876032735,-1.53713809917317,-0.130273421508479,-0.780325928374067,-1.0065829944637,-0.365922790609098
466.250888429753,74,4.89527615610156,-0.11369618479034,-0.00356942273275332,-0.329439538397135,-0.365747893822116,-1.97064558265095,-0.491113547757848
467.253578512397,74,4.6211239710743,-0.754196117779435,-0.238181045890532,-0.558715287390199,-0.528401697524493,-0.896581655009244,-0.102374933481354
468.256268595042,74,4.50656662913209,-0.88172506523719,-0.794441681336306,-0.419308134500484,-1.26150428748398,-1.71170159110671,-0.904051496402068
469.258958677687,73.4426611570261,4.62251143657087,-1.15163261157012,-0.0911976462832688,0.288648930577669,-0.422605996720568,-2.06201401236369,0.0655395328439519
470.261648760331,73,5.38229483324412,-1.12376605369612,-0.196945747468518,0.0284665186633993,-1.29201811984344,-0.0318578982103762,-0.588586239662887
471.264338842976,73.5627190082632,5.85011684363606,-0.99369518759843,-0.00823146591869444,-0.217104829946475,-1.21117112136499,0.139285966294966,-0.520950811642734
472.26702892562,74,5.52452331999983,-1.02945990946847,0.192621359343375,-0.233444131053216,-1.30059503637049,0.175267961682882,-0.273063074536401
473.269719008265,74,5.35458090876058,-1.06438549752713,0.155811503092703,0.0726834053104712,-1.09478099170278,-0.0706919928711186,-0.098503272706648
474.27240909091,74.5707892561968,5.59630943388444,-0.983272966813413,-0.0241546303257361,-0.200899905408952,-1.07839488284805,-0.0935917425946026,-0.119460245844038
475.275099173555,75.5734793388419,5.83803795900853,-0.860849700822164,-0.12945607166464,-0.297905051231352,-0.893896347072725,-0.101795588224148,-0.0649652996971052
476.277789256199,76,5.89453120706582,-1.02199838017184,-0.107163721948382,-0.331402786742236,-0.848269955795255,0.0145088644808124,-0.0195600161189379
477.280479338844,76,5.4803500146276,-0.99911819133655,-0.0788152229701232,-0.0646528009831142,-0.993387321473591,-0.0325344061282712,-0.0426341820745014
478.283169421488,76,5.13343694460729,-0.975038783609483,-0.112607551002171,-0.567900598977861,-1.13854424933013,-0.125070839924509,-0.0269935768499339
479.285859504133,76,4.95300787768572,-1.0193881198264,-0.0270172464820322,-0.246478792688294,-0.936642328443426,-0.0490408832016184,-0.0497318545178569
480.288549586778,75.4130702479351,4.87497217919437,-0.961957488098456,-0.133606264771018,-0.288322357469845,-0.872017842471953,-0.0967435482846326,-0.126919009297521
481.291239669422,74.4103801652909,5.04384022946289,-0.970255428650651,-0.0657185091439017,-0.806373132167685,-0.889238874387126,-0.0123231744890283,0.0034918722364857
482.293929752067,74,4.92837283754054,-1.00190006829214,-0.15391984388032,-0.451572154349961,-1.02826970733676,0.00896963482765852,-0.213501493238802
483.296619834711,74,4.14471538999954,-0.924399033332469,-0.0525990433280907,-0.733315149969206,-0.829739250000426,-0.0548586250029459,-0.0594677310026996
484.299309917356,74.5976900826436,3.84387137086865,-1.04648362871574,-0.0503568709632702,-0.102322977951566,-0.832816197105975,0.387225390508267,-0.236663067267067
485.302000000001,74.3996198347122,4.64908164173609,-0.999371003622031,-0.200128707132256,-0.0218760454455672,-1.85393298898407,-0.902398856741094,-0.294669636347683
486.304690082646,74.6030702479329,5.24935873398777,-1.9083247437985,0.286932888635758,-0.551265921447193,-1.10961593388364,1.14806512396556,0.218485269420186
487.30738016529,75,5.39186606198358,-1.97615911432509,1.29661373137762,-1.41060399389371,-1.49581433887527,1.57311325407308,0.604772621891759
488.310070247935,74.3915495867777,5.56941125600239,-1.97712628925612,0.893013144876901,-0.698531529997071,-1.28905857523695,0.848825341687787,0.200248375624094
489.312760330579,74,5.8232898782027,-1.97616947107455,0.939656773612676,-0.795127943929576,-1.37317842975049,1.45545647881503,0.61981677852942
490.315450413224,74,6.07716850040301,-1.9765831301653,0.730585234513707,-1.55245516013834,-1.69428261885123,1.6695934865675,1.11255222285141
491.318140495869,73.3834793388442,6.33104712260355,-1.97574777686037,0.987720214744161,-1.04889850645411,-1.54694854455331,1.12728282851868,0.239972432433517
492.320830578513,72.3807892561999,6.34202134154242,-1.56984002064002,0.166192575434837,-0.983426350653056,-1.49529270258051,-1.02897335780587,-0.033249918381663
493.323520661158,72,5.8492726965284,-1.0811955740466,0.270749755393974,-1.55227914600161,-1.77701525638791,-0.83533974697963,-0.125645343862326
494.326210743802,72,5.35652405151482,-0.925019590837339,0.199553449925204,-0.688621690815185,-1.9979512272768,-0.773823608978429,-0.234342238681034
495.328900826447,71.3727190082654,4.99493319999988,-0.819019731635737,0.318891851612515,-1.04870196485154,-2.02076338842961,-0.70439315896636,-0.0926262597541963
496.331590909092,71,4.89559794687492,-0.896432227557331,0.56115632031686,-1.31243461804443,-1.66164369324164,-0.543820128357241,-0.210043491637961
497.334280991737,71,4.79626269374988,-1.10376344126697,0.0215183372111698,-1.22765288596416,-1.70837868190206,-0.600416004756489,-0.0724812722734977
498.336971074381,71.6353512396681,4.69692744062492,-0.83464229389056,0.702842895174036,-1.16804295232555,-1.99711583402444,-0.598318162582001,-0.506329991048541
499.339661157026,72,4.59759218749987,-0.567167287035995,1.16183787708336,-1.19248548787758,-1.95142713633247,-0.0801302974123627,-0.306349509375641
500.34235123967,72,4.49825693437491,-0.0774849388581642,0.991213616241913,-0.969812184446461,-1.88098268075691,-0.0364969907203197,-0.231063326636527
501.345041322315,72,4.39892168124995,-0.736227997712527,1.56673296886151,-1.58823343215095,-1.92554299022393,-0.100411975089695,-0.14719422561696
502.34773140496,72,4.2995864281249,-0.259883988381722,1.23766694813662,-2.41146788456313,-2.01731453500172,0.0481162014629063,-0.276712889172737
503.350421487604,72,4.20025117499994,-0.0457667004487737,1.00083355933919,-1.19610086919997,-1.16795888095488,-0.414652844675327,-0.459402331394702
504.353111570249,72,4.10091592187489,0.0235973342589528,0.79632507938421,-0.545357482404145,-1.03666889833787,-0.600918412841915,-0.222105180176214
505.355801652893,72.6541818181804,4.00158066874993,-0.0530562217842339,0.76827793635099,-1.07126429084837,-1.09260449088848,-0.570750318195464,-0.460909690923031
506.358491735538,73.6568719008255,3.90224541562488,-0.15220993121803,0.784094730406537,-0.395011348339651,-1.09896195799496,-0.398368784745575,-0.068031620636182
507.361181818183,74.6595619834698,3.80291016249992,-0.310910357050363,0.725826287574238,-0.194159838857491,-1.01514155991751,-0.790174823429643,-0.628170147122023
508.363871900828,75,3.70357490937487,-0.0762757204821043,0.711726176658449,-0.674105454145693,-1.0790099214672,-0.606251435688737,-0.652159143553218
509.366561983472,74.3350578512409,3.60423965624991,-0.22060349043492,0.842279130575069,-0.248062500815707,-0.93279756693834,-0.810429651252309,-0.425226530586873
510.369252066116,74,3.50490440312495,-0.305290242778508,0.760060263428576,-0.182925355879737,-0.889633817147372,-0.815326085748501,-0.510540078519988
511.371942148761,73.3296776859515,3.66302449741107,-0.431635879387345,0.737818537285645,-1.14499820148715,-0.961288493364364,-0.825942615608634,-0.397020446087968
512.374632231405,73,4.24784683041359,-0.380345751879169,0.689706544736288,-0.463088253717652,-0.905061979107657,-0.84827978824264,-0.477785085611034
513.377322314051,72.3242975206622,4.83266916341663,-0.26366806900533,0.705994605786629,-0.514563127271632,-0.778855655884406,-0.900095504678069,-0.529508446772351
514.380012396695,72.678392561982,5.20370910371903,-0.322794262867432,0.713343677208718,-0.60079727269049,-0.85869112670832,-0.773903200786673,-0.556202486011504
515.38270247934,73,5.23232587867772,-0.392035908133634,0.658219963803223,-0.255472691130867,-0.914233409081527,-0.814652889132236,-0.503867245159265
516.385392561984,73.6837727272714,5.26094265363639,-0.241203560749722,0.693199552227714,-0.318625546569796,-0.865962554520451,-0.916058194749308,-0.699542619721983
517.388082644629,74,5.30512481735546,-0.705761238072902,0.31101671074007,-0.202847690927478,-0.655284600797319,-0.773726997096765,-0.753244635980699
518.390772727274,74,5.37340801198353,-0.76321217236713,0.316864893373658,-0.121521547349884,-0.472584454153119,-0.690060356152284,-0.638686513555776
519.393462809919,74,5.39067121322306,-0.903306962011988,0.260872703713872,-0.281785288438708,-0.389916577932948,-0.553156686490209,-0.352791537458633
520.396152892563,74,5.33069029247928,-1.27089142840448,0.39500587810493,-0.529914440802156,-1.59644980370434,1.2459461146149,0.935311803723428
521.398842975207,74,5.16287880677666,-0.977436600020969,0.388249184725541,-0.230544317772475,-0.0440194746227875,-0.446779180987679,-0.297482889259645
522.401533057852,74,4.83542027958642,-1.63882341322917,0.241438431815998,-0.497575129341018,-0.101562370651952,-0.610462470464013,-0.356233648932803
523.404223140496,73.2973966942163,4.81643263663942,-1.88254360744487,0.292770398756429,-0.414365257439876,-0.0312821211306964,-0.54458287988987,-0.290133721759521
524.406913223142,73,5.24409666838894,-1.82914269424171,0.297369922409163,-0.738960174607281,-0.0560803908447256,-0.582409353727463,-0.330161526036793
525.409603305786,73,5.67176070013808,-1.56439966943248,0.408590988630298,-0.235318267053375,-0.47318282920326,-0.74051491942266,-0.784231570246976
526.412293388431,73,5.93013467933887,-1.70560393391288,0.310026629749871,-0.250525102185951,-0.493632979549921,-0.695997105581678,-0.471665552897018
527.414983471075,73,5.95139170909093,-1.51986881816677,0.445739763638687,-0.288764899994976,-0.0106407847544176,-0.585834878814109,-0.343023018198297
528.417673553719,73.7160537190066,5.7111486587807,-1.8381270991765,0.0145515416061127,-0.842651119825659,-0.0966463419254716,-0.521868062544393,-0.359506964439699
529.420363636365,74,5.11261788119776,-1.97881021487612,0.206078091728372,-0.312187662809936,-0.171683884316879,-0.559208793387781,-0.13526073768903
530.423053719009,74,4.99615876805816,-1.49290994836274,0.335945313012499,-0.530080297514711,-0.566865726509293,-0.797024177434435,-0.718936800631252
531.425743801654,74,5.22360393413204,-1.95925938764329,0.202665707015988,-0.423318750234265,-0.0373583981825293,-0.656942907035505,-0.413753524782884
532.428433884298,74.7268140495853,5.05034410130154,-1.98225673088845,0.135140134134916,-0.330540264925523,-0.0767669934344866,-0.496215387117906,-0.805613880759861
533.431123966943,75,5.00755971863651,-1.98220113429751,-0.523865598102613,-0.316259125734684,-0.133016481128015,-0.414154032601771,-0.49716207107408
534.433814049587,75.7321942148747,5.13401397840919,-1.98275099965566,-0.849653980762526,0.0970413555174989,-0.498028253936777,-0.0536678019227461,0.165178541907788
535.436504132233,76,5.13869376347088,-1.98186,-0.331769570264305,-0.197133140495185,-0.0975773124075112,-0.532176749288371,-0.389474744420342
536.439194214877,76,4.98882669026847,-1.98333102582627,-2.11105423141074,0.446271022445875,-1.40639579142418,0.63863208191192,0.315521983914872
537.441884297522,76,4.86741681851228,-1.98267431404944,-1.96930337193385,0.55621103970467,-1.65085993388487,0.997077073824545,0.183837069585604
538.444574380166,76,4.7813459018181,-1.95524522565081,-1.63319730928109,1.95834440514249,-1.60076723859905,1.75163689767331,0.205817072715421
539.44726446281,76,4.72118662685949,-1.94019844627429,-1.93826160347485,2.04078846197418,-0.939717566973437,0.174324577856674,0.282941514473587
540.449954545456,75.2516652892573,4.69251470394625,-1.98090097623955,-1.89851170967911,1.67229940080666,-1.86084929760408,2.00222761020243,0.224233103948968
541.4526446281,75,4.72646393078519,-1.97822576308495,-1.95141161428869,1.80073008812408,-0.593663259076524,-0.358404835235355,0.0622716541201195
542.455334710745,75.7537148760321,4.8348797959712,-1.97932302040285,-2.13369873037123,2.33176062554069,-0.591500046067447,-0.559890001051927,-0.0584349000137763
543.458024793389,76,4.5986451742144,-1.96509954338726,-2.15537003512353,1.52383223757997,-0.544427187315282,-0.203089239692683,-0.0469217371287211
544.460714876034,76,3.96132533078433,-1.98213846632231,-2.16006,1.54825749975245,-1.80453099449518,1.6465264841775,0.184011139766352
545.463404958678,76,3.97960148322379,-1.79545876034407,-0.366142194193434,1.3701207165322,-1.20050090909221,-0.0385883746567573,-0.139337267768576
546.466095041324,76,4.57978199466998,-1.3841222074095,-1.31803526223014,-0.212797503032419,-1.59533530906437,0.547693665319964,0.265755688189934
547.468785123968,75.232834710745,4.99432415553758,-1.02872125849901,-0.874194640718393,-0.625652223623225,-0.815807862895338,-1.07436995803099,-1.02512597303222
548.471475206613,75.7698553719001,5.3171169585747,-1.04822635753556,-0.603628188528089,-0.517851272853726,-0.687843072329446,-2.13008,-0.59529731908069
549.474165289257,76,5.53873653409114,-1.09951285194531,-0.325211680540205,-0.0954939685918183,-0.948744897409336,-0.670597737643641,-0.663500111670817
550.476855371901,75.2247644628114,5.50965873206593,-1.03036456817769,-0.09368025848535,-0.533535072343078,-1.44130719694682,0.254077986210819,-0.416093754123006
551.479545454546,75.7779256198337,5.31324094446271,-0.918851892149947,-0.214291765089495,-0.402243306212033,-0.880047280182487,0.0139072665938541,-0.256114621495994
552.482235537191,76,5.22703967805779,-1.08517926446555,-0.0992614175914288,-0.113206496327356,-0.737380068442293,0.327289824464798,-0.21718709618081
553.484925619836,76,5.04493214855337,-1.22213797355956,-0.0310190708721184,-0.0896635855923317,-0.959285184290715,0.471168906602693,0.0710289193489256
554.48761570248,76,4.76259968853283,-1.12389815237541,-0.124034452466159,-0.254331648835034,-0.84223075927393,0.69349616677771,0.105909096626678
555.490305785125,76,4.59828757487598,-1.22540574382221,0.0187534512558841,-0.0661965276835887,-1.00904577479328,1.12665228516024,0.648434605417213
556.492995867769,76,4.7918494904274,-1.79031656616448,0.330188696656358,-0.993032570404684,-1.24073455125187,1.11130078016322,0.297730695775915
557.495685950414,75.2059338842992,5.22539597066138,-1.9741881487603,0.621207985944115,-0.911545466102313,-1.30584904131777,1.27941231583712,0.356688322248156
558.498376033059,75.796756198346,5.65894245089576,-1.88418576446812,0.261464247728365,0.0406114428040916,-1.30252789465182,0.232375282525296,0.276876901237079
559.501066115704,76,5.83788403636353,-1.97486794834741,1.016562851778,-0.672594091067839,-1.67808476415393,0.850111648126179,1.00370157979408
560.503756198348,76,5.76734980249992,-1.89724757575159,0.243956704480027,-1.8705618711973,-1.42480435606831,0.205770431850939,0.519765051533167
561.506446280992,76,5.60397536954527,-1.97612478099177,0.448940971176468,-1.55635802649412,-1.71196346281769,1.27294671064111,0.438052131200423
562.509136363637,76,5.3515631815906,-1.84437354749873,0.688825824098165,-2.54033930582126,-1.73129917148263,1.49125770984065,0.593640850568639
563.511826446282,76,5.22051869710742,-1.31816163303409,0.16356677952365,-1.31597068184733,-2.01722146961437,-0.881886074002661,-0.182528278961588
564.514516528927,76.812896694214,5.20339776394626,-0.608500897061386,0.59798153840716,-1.03587683918906,-1.84411246284009,-0.968696854206913,-0.373974477866498
565.517206611571,77,5.27142973314063,-0.453962727351441,0.369451339296156,-0.896388884557379,-2.00756983471156,-0.387638751988547,-0.263447806572204
566.519896694216,77,5.41769213549607,-0.767592086354323,0.715133028184665,-2.21918124198334,-1.61534306536357,-0.255634205314903,-0.411531211712813
567.52258677686,77,5.01450990049497,-0.453175936084726,1.32058878787523,-1.17701402947332,-1.80697879125996,-0.283894525066107,-0.329959213586094
568.525276859505,76.1763429752082,4.1172927876441,-0.521597427870694,1.04968790430673,-1.35668007642637,-1.8644947024403,-0.231378583394486,-0.218925283834429
569.52796694215,76,3.89698915661198,-0.712607722326669,0.0589775933698156,-0.412130360300527,-0.959365863573603,-0.433411925604279,-0.287885608237767
570.530657024794,75.1709628099188,4.2723662428515,-0.864201644642681,0.381237210752283,0.115065078519809,-0.830701086749779,-0.520338437890317,-0.22991214881006
571.533347107439,75,5.11038076181965,-1.34079054549477,0.330557140851218,-0.242924800072418,-0.498982340898691,-0.183875100006844,-0.0498604749848761
572.536037190083,75,5.16480290609429,-1.24109851244754,0.0393275217930155,0.00361511087625158,-0.702144226303693,-0.781245541599177,-0.149924438910029
573.538727272728,75,4.21217212582522,-1.98289,-0.0892348779137768,0.4364137339364,-0.248234859529265,-0.484645927202983,-0.304824519009691
574.541417355373,75,3.81911479028932,-1.98289,-0.862045434789226,0.2976754035408,-0.429246234939744,-0.199452593775597,0.113163430104592
575.544107438018,75,3.89260194644638,-1.98195044421482,-0.744626807933178,0.869962694216684,-0.549341425653788,0.427561603318895,-0.173578814446923
576.546797520662,75.8451776859492,3.96608910260338,-1.70316838531313,-2.03610369112981,1.10600614023598,-0.219855510101474,-0.483854336177476,-0.0892900224266426
577.549487603307,76.8478677685944,4.53483735731548,-1.64721693219829,-1.91734967932915,1.29731014544001,-0.85750033330752,0.516726751450921,0.0925377283426536
578.552177685951,77.8505578512386,5.50330061398864,-1.88024376958702,-0.494058922937646,0.86378598736631,-1.69779656117259,0.143494517362378,0.357203127778195
579.554867768596,78.8532479338828,6.18703373195623,-1.6090579059342,0.0777396183964274,0.509924048191894,-0.640537523407536,-0.36299120911262,-0.104063488997001
580.557557851241,79,6.64590816367822,-0.992858600056776,-0.420429893358572,-0.118468328437141,-1.60770020000483,1.01304639174739,0.56977442251986
581.560247933885,79.8586280991722,7.1047825953998,-1.97522906776835,0.433088763690274,0.572398122316173,-1.01190026940012,-0.244768507538107,0.0718166450922437
582.56293801653,80.8613181818173,7.03548578886304,-0.741237976340644,-0.606769199210011,-0.840663854654442,-0.726692552268748,-1.26152059092084,-0.486979209099226
583.565628099174,80.1359917355385,6.56250183652852,-0.783934114858238,-1.1793563999303,-0.626862015397307,-0.392327693453776,-2.08072705794889,-0.882469570378526
584.568318181819,80,6.24006684827795,-0.510277229125553,-0.267678973221545,-0.463667101095328,-0.745395281215296,-1.74669750997923,-0.944570303772964
585.571008264464,79.1306115702491,6.03020715628079,-0.754036597837239,-0.84287578522753,-0.434446892593363,-0.392475562036131,-2.12939900826483,-1.0240325536513
586.573698347109,78.127921487604,5.82034746428344,-1.61199913218319,-1.36114967142277,-0.249704980256842,-0.750715063433809,-1.68380339649779,-0.56864845590328
587.576388429753,78,4.60824398594838,-1.19127262006728,-0.850841648351862,-0.446425406853588,-0.976028165339915,-1.56949733051455,-0.709417842116596
588.579078512398,78,4.25404969698468,-1.04905787326684,-0.0370719737410418,-0.0286496502161176,-1.25474691119341,0.317379939174329,-0.527698129532193
589.581768595042,78,5.0326686268604,-1.04944498348167,0.00563759953790483,-0.025276686808192,-1.25458692559431,0.08689791633632,-0.412820880981103
590.584458677687,78,5.81128755673612,-1.04404800681779,0.216885469588523,-0.109033385334398,-1.03635785952433,-0.1343934572969,-0.206811681459453
591.587148760332,78,6.21061094545472,-1.10590914829809,0.0997355406790677,-0.097331904900646,-1.23485031955312,0.218977516858804,-0.586243387423009
592.589838842976,78,6.34737787272739,-1.08374211157102,0.0717509156221165,-0.139041660078327,-1.2397471414697,0.0516947528539697,-1.27679848494376
593.592528925621,78,6.18549518818133,-0.910890900006973,0.149871438804972,-0.271047236349464,-1.18242475757273,-0.0654046667500957,-0.409596068463151
594.595219008265,78,5.82142844607404,-1.06521136993223,0.0665449052891772,-0.318034473490503,-1.16273800901338,0.0470625282979358,-1.59922844884233
595.59790909091,78,5.50945271479299,-1.06895518594008,0.207054912220431,-0.290009024585336,-1.21807943527888,-0.233322486251745,-0.276349231388324
596.600599173555,77.1010206611581,5.23196324787161,-1.12086573217458,0.0987569428062763,-0.0909736563911209,-1.01292782984643,-0.122332149311075,-0.20514241464657
597.603289256199,77,5.69487448198406,-0.95029043637163,0.0912578885807975,-0.086724780231327,-1.2090476491943,0.153360924818271,-1.591575786552
598.605979338844,77.9043595041312,6.06044801454545,-0.843102149173779,-0.128760286688592,-0.220306196276666,-0.854788648206642,-0.0400385184975509,-0.124145475657338
599.608669421488,78,6.05691854545454,-1.10262980868537,-0.12852716117946,-0.0575923909275002,-0.884276833474306,-0.0261757058128617,-0.0996113281128701
600.611359504133,78.9097396694206,6.07070095888433,-0.991215800611391,-0.170802903926368,-0.290781529991244,-0.845477143603677,0.0160922927278598,-0.142719415139481
601.614049586778,79.9124297520648,6.09531700041324,-0.91677632561265,-0.365396095873893,-0.31064141488041,-0.865959829338945,-0.0439626813286441,-0.217152943002011
602.616739669423,80,5.82763314820189,-0.903166358885188,0.0805387517758663,-0.382213097523878,-0.778456322722621,0.238679542973986,-0.288283618186447
603.619429752067,80,5.38114026785083,-1.07603425345738,0.0431412809542609,-0.0596249757970233,-0.971901941912653,0.157175419954554,-0.191675875677563
604.622119834712,80,5.30138871666686,-0.980378337498652,-0.037107596249794,-0.256521575015949,-0.90653620000252,0.204319100009427,-0.093398412480451
605.624809917356,79.0768099173565,5.44091638396708,-0.909355056474623,-0.0196353758543586,-0.508159564739711,-0.894361512396537,0.128989152066032,-0.221981619834692
606.627500000001,79,5.58044405126743,-0.989741112179274,-0.033167024135889,-0.315900710962221,-0.995384617437613,0.0158865461925155,-0.346695440495612
607.630190082646,78.0714297520672,5.74423567206631,-1.16121358782491,-0.00619689239405604,-0.238593310265462,-0.940710225893766,0.773775881541689,0.163834099259376
608.63288016529,78.9312603305771,5.79368536064048,-1.13878261088387,-0.0192725451462441,-0.403916186913018,-0.969490573346418,0.710436247307505,0.156451504673375
609.635570247935,79,5.76984640392559,-1.11329805950527,-0.0598632729588053,-0.410216553718065,-0.937765416523786,0.959528568665615,-0.00329396350642846
610.638260330579,79.9366404958664,5.83951232024803,-1.26199128099221,0.0193032353263447,-0.308032979339206,-0.920017314737464,0.667435263088368,-0.0342153008617095
611.640950413224,80,5.96133916528941,-1.29915461689684,0.0810305962640567,-0.549663760431537,-0.972769598168274,0.459444539636279,-0.124963696682455
612.643640495869,80.9420206611558,5.9299841538842,-1.5298891870016,-0.0577392916302978,-0.15248256664694,-1.09365364721559,0.348122533310603,-0.0138336731668861
613.646330578514,80.0552892561991,5.81515608561967,-1.76407002204256,0.0710285697017673,-0.0111270879836501,-1.23915723969075,0.650719920292141,0.105857251170339
614.649020661158,79.0525991735549,5.5306844191112,-1.62718584918698,0.277331033069608,-0.0115974519005448,-1.31025570145426,0.68558395498938,0.345690756942025
615.651710743803,79,5.15592398727217,-1.96254295454788,0.408038119356684,-0.310844546583872,-1.46996238637787,1.08513603416118,0.229924261354801
616.654400826447,78.0472190082655,4.973545795909,-1.91483436777657,0.420086526564277,-0.649697959555063,-1.59712083267023,1.30331942257187,0.113145719634936
617.657090909092,78,4.89115475181805,-1.97667,0.853759788467594,-0.595615595159387,-1.65789940500021,1.44616638845393,0.216736163634042
618.659780991737,78,5.02694654464905,-1.97597605991752,1.08438886652131,-1.13000096900323,-1.76263194005695,1.44519482641748,0.6726017400972
619.662471074381,77.039148760332,5.27345288801672,-1.9768178161154,0.928715800049953,-0.91113237876831,-1.7020717355438,1.17952739903849,1.17420376838338
620.665161157026,77,5.21395769894601,-1.97673392561987,0.581418624498811,-0.632167211793185,-1.42497200615942,0.315614691226497,0.020124121858084
621.66785123967,77.9662314049574,5.00288642309899,-1.89452423730331,0.252403605035858,-1.66914898036146,-1.40273822176649,-0.119409914101541,-0.118075560261013
622.670541322315,77.0310785123975,4.95407347995872,-1.32015184964248,0.256633980569925,-1.61589230107323,-1.09766883010612,0.0762282431022974,-0.0167752810431304
623.67323140496,77,4.98370297190085,-1.2769070776537,0.623835537411055,-0.785135527920448,-1.9553822769072,-1.35923366243202,-0.192479740586715
624.675921487605,77.9743016528919,5.10898380940108,-0.754591949584621,0.698405996486787,-1.33891393699576,-1.93197122175873,-0.532144322189278,-0.555298215514967
625.678611570249,78,5.27938597549605,-0.950657070853859,1.4126017271974,-1.61017621479855,-1.84049783471766,-0.907746066097857,-0.30380066281751
626.681301652893,78,5.31713838136362,-1.14487327476957,0.17492398047068,-1.06620124314112,-1.62570154545975,-1.02363462727067,-0.209009578410317
627.683991735538,78,5.29384589074378,0.0249389154755415,0.815088536545678,-1.71251108114243,-1.70074696142601,-0.296715916530209,-0.205772517762611
628.686681818183,78,5.30344018557855,-0.311617915816807,0.750180269615221,-0.297913176642423,-0.862793130164491,-0.85129826158457,-0.381396976034104
629.689371900828,77.0122479338852,5.32779552768598,-0.665281398376465,0.505461118979406,-0.334328137168672,-0.734326732214227,-1.03078028099215,-0.413171776037892
630.692061983472,76.009557851241,5.18362094896676,-0.91184354083323,0.307198731922245,-0.497242629112558,-0.867631842975328,-0.838554367077942,-0.556690415288466
631.694752066117,76,4.96568625950384,-0.802744892824927,0.481145063417498,-0.310680688463275,-0.725378241243576,-0.907981578669834,-0.764511082054315
632.697442148761,76.9958223140484,4.88084854576444,-0.625070840435426,0.431140185006701,-0.207843522609724,-0.31560950407588,-0.740436893161786,-0.39847982890123
633.700132231406,77,4.85279829070244,-0.916350762008018,0.278019138006482,-0.230295756197218,-0.492709744119713,-0.742595845613415,-0.947908638698266
634.702822314051,77,4.84236457231405,-0.67585720927892,0.293460776944578,-0.223601892973713,-0.0347871343672601,-0.667813605279433,-0.458189467660121
635.705512396696,77,4.83925623305785,-1.36563111573973,0.3831595681769,-0.184587050095116,-0.23780881427234,-0.548961060417538,-0.380153518591185
636.70820247934,76.9934173553729,4.77432547207979,-1.98088030371952,0.11989550983019,-0.404461678749803,-0.118508045771663,-0.450949208462598,-0.369914882414015
637.710892561984,76.0092727272713,4.68434740636357,-1.69314012125966,0.252371236352129,-0.673808060628754,-0.375857138847999,-0.640051686666464,-0.977873092727208
638.713582644629,77,4.59436934064727,-1.91557659045242,-0.0587131808194807,-0.565130317128491,-0.0437326985831232,-0.548208462863087,-0.450505976563215
639.716272727273,77,4.58834957520663,-1.98289,-0.437168688974082,-0.147915454463807,-0.0204529077955268,-0.646155295866154,-0.37973306577626
640.718962809919,77.0173429752058,4.61502614485541,-1.9829598347109,-0.635813297684689,-0.0686343302500027,-0.679201524909127,0.267946222152387,0.309261390500656
641.721652892563,78,4.93310119925659,-1.98303300606059,-1.1296939694644,0.605115224781447,-1.07149114636982,0.488611634525535,0.583274115111972
642.724342975208,77.9772768595049,5.36166096747995,-1.9830035977961,-1.77182611670895,0.284927227154793,-0.945795927714262,0.512922285842486,0.422635745693063
643.727033057852,77,5.32089766644606,-1.98295573140486,-1.72517988854114,0.626991809139707,-1.31336626654045,0.568939497060321,0.174131969956134
644.729723140497,77,5.10694365661124,-1.98274487190073,-2.04424222452386,0.630089973569053,-0.657212696344601,0.282957616997145,0.210075050448425
645.732413223142,77,4.99386075884289,-1.98316320936625,-1.53518995873155,1.01433983591784,-1.05332488162304,0.769390490483922,0.262432750415516
646.735103305787,77.0334834710739,4.91699453710731,-1.98212046074381,-2.01352875413056,0.460257708470147,-1.14172183475369,0.740732255508078,0.258762677717044
647.737793388431,78,4.31845020760236,-1.62970036966033,0.141013330943596,-0.392061959954114,-0.424427285384647,-0.199047507982254,0.00564746885619911
648.740483471075,78.0388636363623,4.56672912818231,-1.983732409091,-1.67961972724989,0.400405390900585,-0.996227450086408,0.321968956882414,0.425409436356049
649.74317355372,79,5.16932581405038,-1.98381439669433,-1.94225382655785,0.537536217413376,-1.21764417082165,0.743791730078803,0.346293710748083
650.745863636364,79.0442438016516,5.17406765768577,-1.98298436294758,-1.93397212468152,1.0086263918862,-1.31712261261657,1.03164512317058,0.242728242974192
651.74855371901,80,4.9787035219832,-1.9838976253442,-1.85402007442299,0.216497341260992,-1.04294843705326,0.595298722561544,0.488264652850833
652.751243801654,80,5.10029673227295,-1.98231278856742,-1.3831258119686,0.241763228710687,-1.14110769074925,0.659648599162309,0.822449157341923
653.753933884299,80,5.32496949909125,-1.98218517355389,-0.175239742233323,-0.515919717325548,-0.785909129128902,0.268580126629088,0.294691658015424
654.756623966943,79.9449958677696,5.18640632613609,-1.98186,-2.16109,1.00766610247065,-1.51598206838241,0.542855346766586,0.383916888422478
655.759314049588,78.9423057851245,4.93311177090869,-1.97494659089566,-1.86512848145102,0.622179617044951,-1.52949993801911,1.19055800827615,0.296674616944709
656.762004132233,78,5.17495786494537,-1.98161067217626,-2.14518928099273,0.25550130352434,-0.208469936252477,-0.439028606495137,-0.380632336093592
657.764694214878,77.9369256198352,5.56863070289323,-1.98106524517917,-2.16030288705244,0.734447735583038,-1.07158364752288,0.644721341545678,0.457843996164027
658.767384297522,77,5.96230354084073,-1.94971660898079,-2.16021119834692,1.52364060133521,-1.23604115082307,1.30989628389661,0.270668662029324
659.770074380166,76.9315454545467,5.58592158181765,-1.9817298484846,-2.04100253037526,0.991484736544788,-1.37929043182055,0.486408177284999,0.0443053295472199
660.772764462811,76,4.98388640239586,-1.98348584710739,-1.73885804752984,0.29883671737949,-1.26702831281521,0.295280028274985,0.137610182498425
661.775454545455,76,4.31383271132164,-1.98199846280993,-0.957242837194373,-0.0430228745413452,-0.0682353320012111,-0.635118353750061,-0.519766348253126
662.778144628101,75.9234752066122,4.08002977229323,-1.9839572892563,-0.92926165933242,-0.0480130172928944,-0.893494902922949,0.485505870574206,0.242163603224671
663.780834710745,75,3.97365939487592,-1.98155048301194,-0.31630175610732,-0.000794504728506715,-0.437932372744603,-0.12224600009196,0.00517397169937841
664.78352479339,75,3.22386602220929,-1.82315267354724,-1.19710822316559,0.432168085568816,-0.564931951856965,0.0386490045989927,0.0475656370156393
665.786214876034,75,2.29971164028817,-1.98233882231404,-0.197024400825816,0.0501122776855423,-0.755357727279663,-0.679641862255474,-0.142463730027101
666.788904958678,75.0872851239656,3.01302766995955,-1.97733145065838,-1.16995716489825,0.181225885268464,0.0864641335622755,-0.574767462564958,0.13000548903924
667.791595041323,76.0899752066107,4.15598406826591,-1.85287623966308,-1.90380171834099,-0.0300759085813626,-0.77366030492421,1.67904269246751,0.734727102562737
668.794285123968,77.0926652892549,4.51036653487617,-1.97834111157128,-0.546016708747304,-0.208040894245882,-0.311234816038387,-0.810921336563645,-0.211760009648397
669.796975206613,78.0953553719,4.66454016198368,-1.98448352066107,-0.839630866146143,0.123670628438535,-0.125941276859757,-0.0074018976506384,-0.0290905862049635
670.799665289257,79.0980454545443,3.55047738181681,-1.63106693182972,0.00400036647407271,-0.198604277271397,-0.353746215915405,-0.385101585228006,0.120550936924008
671.802355371902,80.1007355371894,4.10592494457451,-1.98114706404973,-0.501516578130721,-0.233475508053932,-0.324371899207288,-0.377051818147398,0.146093168765569
672.805045454546,81,5.13947448566225,-1.98298381611571,-1.65574125756508,0.715820703792449,-0.913911455124756,0.414646717063421,0.0372566588045752
673.807735537192,81.1061157024787,6.17302402675092,-1.98339501652897,-2.13908206611534,0.959494601650537,-1.33545128925071,0.591527593359822,0.291446691906797
674.810425619836,82.2176115702459,5.40279706404822,-1.97553530372025,-2.15991550206615,1.11605530201855,-1.22269723388942,0.981992259389124,0.261246672628882
675.813115702481,84.1114958677681,5.83703320768727,-1.95136235536739,-2.15952797520653,2.17563272309144,-1.5383030440463,1.27762716242156,-0.01115046976363
676.815805785125,85.1141859504123,6.63530987663323,-1.93617594111764,-2.14915303409022,2.00811042153501,-1.11841337389137,0.391926286580841,-0.253115464777768
677.818495867769,86.1168760330565,6.66521504086765,-1.93383147933604,-2.10240614875681,2.66186317362908,-1.25594125754218,0.668387847835416,0.137467077974441
678.821185950414,87.2391322314033,6.52835285803701,-1.89207538583979,-2.01494529027729,3.43965302601143,-1.36076935399561,1.03617645964375,0.06146521877414
679.823876033059,89.2445123966918,6.39149067520648,-1.6550487397089,0.325115566273043,0.420788331014026,-0.796141466541429,-0.243288564464103,-0.583288629041137
680.826566115704,91.124946280991,6.25462849237584,-1.08386440070602,1.81579348187794,-1.23024901890658,-0.779840463331104,-0.628142801937125,-0.181815240819153
681.829256198348,92.2552727272705,5.20872211408964,-1.61228256360756,-0.403514316319621,0.0950787890930832,-1.6084638181305,0.837941967318739,0.36799060003727
682.831946280993,94.1303264462804,3.97978002774605,-1.21033586157604,-1.78323982616261,-0.0529488076418052,-1.96322698426455,1.86782589701583,1.08423111026269
683.834636363637,95.2660330578492,4.29596854479408,-1.37158633624471,-0.0916138355042842,-0.0460470131960332,-1.49271189487063,0.858115563406307,0.542286736134867
684.837326446283,97.1357066115697,4.91137960991836,-1.08568269167179,-0.192146575726169,-0.146541043115415,-0.424742328023274,-1.34475013652411,-0.0451834581987288
685.840016528927,98.138396694214,5.34071886264511,-0.72657943530313,-0.380990316866428,-0.125953822534802,-0.787302330572922,-2.04265421486297,-1.15846107436123
686.842706611572,99.1410867768591,5.73543784057919,-0.80951011934295,-0.88938776269607,-0.604795911645399,-0.753011308924234,-1.93929293084441,-1.4000148747266
687.845396694216,100.143776859503,5.44629387107384,-1.06145542424536,-1.7494935663033,-0.295591361570485,-0.906124191141821,-0.727650349819063,-0.694423066305508
688.84808677686,101.146466942148,5.55468668340927,-1.18708844971474,-0.995043218421871,-0.289441364052744,-1.03181327651453,-0.391601999519515,-1.79427373120114
689.850776859505,102.149157024793,5.7539362431821,-0.926599899180634,0.0535212132229999,-0.109180626444351,-1.21467160330486,0.417168803796063,-0.556745814873232
690.85346694215,103,5.70405143402883,-1.1457849834736,0.15071167817885,-0.0254240159249998,-1.25926438533005,0.363090365703413,-0.530095894628853
691.856157024795,103.154537190082,5.61244065462796,-1.1643605759668,-0.936177756682519,-0.212571927842129,-1.28502887603867,0.129688548552389,-0.338893797711509
692.858847107439,103.842772727274,4.84848698386267,-1.12614538939336,0.302867106814495,-0.0441028146504887,-1.09974634469117,0.0433448026419554,-0.435020874911934
693.861537190084,102.840082644629,3.97681340086636,-1.01450824933459,0.127941987116757,-0.157788433755112,-1.04386242146431,-0.024339559502248,-0.0822165644514466
694.864227272728,101.674785123969,4.93755487107588,-0.977300802727064,0.141639363222811,-0.197875159263059,-1.16395144885928,-0.0393411897862637,-0.0885836722649882
695.866917355373,99.5041074380206,6.1787247629762,-0.995720371899304,0.00433285474910404,-0.1835867455943,-0.887618282024453,-0.110347616530284,-0.214642258263992
696.869607438018,96.6640247933901,5.79475830456531,-0.949939797009108,-0.281677232548368,-0.233445771433002,-0.903551930475331,-0.0850659665499174,-0.226009971281141
697.872297520663,94.6586446280999,5.17360683871789,-1.04152871112552,-0.257055305480585,-0.266721755435541,-0.883435921652501,-0.14451933520623,-0.193636510741813
698.874987603307,92.6532644628114,5.43579878452533,-0.977677939093864,-0.137433152042357,-0.500517833858829,-0.883785430371909,-0.020497881911165,-0.451965755582518
699.877677685951,90.647884297523,5.82072649380203,-0.930599979338154,-0.0640595772755887,-0.290599724800745,-0.873266524169775,-0.0754951180070986,-0.183521907434688
700.880367768596,88.6425041322327,5.59662720995822,-0.983639469698274,-0.0122846748289128,-0.258088228722475,-0.944626896703682,0.276288114693239,0.0480007448824563
701.883057851241,86.8185619834721,5.29212025876,-1.00963044710708,0.00144447207615275,-0.187094271904022,-0.987312815724398,0.160503186745144,-0.1611644494095
702.885747933886,85.815871900827,5.31671137022738,-1.10969925413205,-0.125053812593164,0.0118185844124692,-0.947182690493697,0.375324051914719,-0.0142889716712915
703.88843801653,84.8131818181828,5.38250288000008,-0.995952820462469,0.0130538424759451,-0.455958490918484,-0.929256781828998,0.716134272721503,0.122666901809865
704.891128099175,83.8104917355377,5.31266613698333,-1.1187822190009,0.00566283781712777,-0.454844361352921,-0.991464168984863,0.800490093895347,-0.114869835745444
705.893818181819,83,5.48274646573028,-1.29799137741369,0.0420469274107355,-0.333387586773833,-0.991793245198452,0.493056498596521,-0.111667210404316
706.896508264464,83,5.68228847677703,-1.5742690413538,0.00371221137120748,-0.0791124327738513,-0.968230173133043,0.500717810312827,-0.0131931544588575
707.899198347109,83,5.88183048782397,-1.49362047319812,0.0576141243486593,-0.0924126891285202,-1.29182206201238,0.2847998157367,0.0694925078544709
708.901888429753,83,5.53973617185912,-1.47104444214788,0.0207739191950886,0.0419362198331045,-0.960019898966948,0.659353572621877,-0.0293924902788445
709.904578512398,83,5.40668831590894,-1.97789092561991,0.415184958713617,-0.279181848377808,-1.27295099175898,0.379521872776582,0.110373309428166
710.907268595042,83.2056487603295,5.30074909522716,-1.97434343664391,0.704391508618665,-0.50199121756961,-1.37964138687464,0.725880950395716,0.275284866313362
711.909958677687,84.2083388429746,5.10381604016497,-1.97715407024791,0.931986156752437,-1.70760721678825,-1.75085709711097,1.49382085536086,0.52377643594799
712.912648760332,85,4.89819939836753,-1.97693150413231,0.789004145875327,-1.37506616471535,-1.87578237602437,1.70199603721085,0.398283429320284
713.915338842977,85.213719008264,5.33284154772809,-1.97710984710725,0.87775112928491,-1.04854171990777,-1.6898564991896,1.59378050912539,0.108388810168512
714.918028925621,86,5.82448556250062,-1.97737751515164,0.418670389310934,-0.586085318129122,-1.27724131819146,-0.565005918223005,-0.0195373278870694
715.920719008266,86,5.17927338429622,-1.79174274790008,0.33834718020231,-2.1575742865741,-1.31776643255293,-0.696039040665758,-0.365041982958931
716.92340909091,86.2217892561976,4.44004012086677,-1.12276640591089,0.321613976786601,-1.41830829764978,-1.77132341468472,-1.26449312787491,-0.130182960897952
717.926099173555,87,4.3321076645454,-1.34271039744012,0.280684303593099,-1.90504688892152,-1.79341790908711,-0.798086076042412,-0.57023573636145
718.9287892562,87,4.27243757772719,-1.00034165864833,0.493157655395778,-0.909198845445563,-1.68617965427714,-0.808168028918624,-0.778004204972834
719.931479338844,87,3.58434555702403,-0.985000078926063,0.155851259918313,-0.397830561971696,-0.96579304198186,0.30296472529134,0.0517981585665152
720.934169421489,87.2325495867763,2.85209603001953,-1.02568192148775,0.0470616579869468,-0.17012445110492,-0.990661254132073,0.129285990702936,-0.0202075599170178
721.936859504133,88.470479338841,2.98993102895339,-1.02126051515026,-0.0375208752514032,-0.46365245952603,-0.973527986777071,0.0850011542141857,-0.160574157024148
722.939549586778,90.4758595041312,3.18358724921519,-1.06220003748883,-0.0510003277583008,-0.730088852336773,-0.821158023255252,-0.0246220044503899,0.280469002136584
723.942239669423,92.2406198347098,3.37724346947682,-0.343892951117242,0.488825160059534,-0.555192226685736,-1.23014975619371,-0.16588001859756,-0.30120234752194
