Time,ZephyrHR,COSMED,ANKLE_AccX,ANKLE_AccY,ANKLE_AccZ,THIGH_AccX,THIGH_AccY,THIGH_AccZ
0,100,2.09767325069196,-0.184385193143477,0.918371555113012,-0.258404886510274,-1.17628325621381,-0.252200923381708,-0.286888241875777
1.00138504155075,100,0.740774986149475,-1.04223938647772,0.14068607653539,-0.192689930030098,-0.977669128587987,0.0673499140015249,-0.249517603699843
2.0027700831024,99.9628448753501,1.98185293628807,-0.483648460964567,0.385486,-0.181739855324602,-1.12544925815732,-0.125450025097828,-0.151801747246306
3.00415512465315,99,1.93436058171746,-1.00449688919437,0.0232626986184767,-0.204152279779136,-0.959765519495502,0.101070004902774,-0.276356
4.00554016620481,99,1.8868682271468,-1.09575885090874,0.367439857917611,-0.0647588911874362,-1.08015234379927,0.269821606492214,-0.0490223756937306
5.00692520775556,99,1.84041096952907,-0.485157722994384,0.0335674993064431,-0.0916867800567502,-0.898101006711419,-0.317975120351733,-0.0679902047742185
6.00831024930721,99.0426952908547,1.91764779778394,-1.60935046587753,0.163135788970244,-0.221321045705951,-1.18256089826449,0.336046185203558,-0.143112645837949
7.00969529085796,100.044080332405,1.99376689750693,-1.00666368421296,-0.00965465054873777,-0.233379804915389,-0.945198532347879,-0.0221242353192623,-0.211331997152494
8.01108033240962,101.090930747914,1.96998900969529,-1.02257138274953,0.225715057682287,-0.207071004703783,-0.940199493657515,0.111784213294926,-0.255735801243268
9.01246537396037,103.046850415508,1.95335506232665,-1.06023884810761,-0.197782010902952,-0.117741864614263,-1.12104057290577,-0.282908749881888,-0.448294053008776
10.013850415512,104.096470914119,2.44608406855954,-1.61973147247421,-0.575935391186717,0.0148050904586507,-0.698665864242286,0.680817924891028,-0.377101537092353
11.0152354570637,106.049620498611,2.93881307479243,-1.80009884935341,-0.222701261240353,-0.300916555722277,-0.454472350696315,-0.407576765645112,-0.0654017511425134
12.0166204986144,107.102011080324,3.43154208102487,-0.262332040705649,1.02625434696593,-0.210501119206114,-1.34764771431851,-0.331744974132671,-0.35667212465607
13.0180055401661,109.104781163427,3.88772754847605,-1.95525941828242,0.534956151659648,-0.103202970012563,-1.33056272107067,0.693811262491495,-0.0698564584959285
14.0193905817168,111.053775623264,2.49324380193935,-1.17860855956157,-0.213447273373108,-0.393399806086017,-0.962797759613263,0.261465667279661,-0.341571139726316
15.0207756232685,112.055160664816,1.1643849861499,-0.944945199111819,0.04347451618625,-0.373214615071442,-0.957550497235876,0.345600034968416,-0.255227810237947
16.0221606648192,113.056545706367,2.71856702216041,-0.957521026594958,0.130366814404818,-0.17878664376912,-0.882109582410166,0.441636918975189,-0.194364554362849
17.0235457063709,114.057930747918,3.57668390581727,-1.08683508048213,0.0766033139064475,-0.221717759676617,-1.05508656376708,-0.323357741719005,-0.406023891908427
18.0249307479216,115,4.38221539473728,-1.19728323308185,-0.306251067673036,-0.0849909304569945,-1.02702114167297,-0.690089072907166,-0.636813481807741
19.0263157894733,115,3.23931962603875,-1.51912168568241,0.0939881282922783,-0.376994435104339,-0.629661255071048,-2.0106504022124,-0.606437032885846
20.027700831025,114.937914127428,2.13519561634357,-1.44355881232556,0.369099692252955,-0.682959239722887,-0.892069005930752,0.0767544322803156,-0.0820759456681643
21.0290858725757,113.936529085877,2.32715612188364,-1.88765250996236,-1.91015869071853,0.102963359923793,-1.43798072235397,1.33418430858035,-0.782425688883125
22.0304709141274,112.935144044325,2.52248889889207,-1.95856457064077,-0.255862660949024,-0.150023486426416,-0.358070823552324,-0.373340635188484,0.00678396248570012
23.0318559556781,112,2.8204560249307,-0.741913064841685,0.241626187117462,-0.282227459942625,-0.49625710532931,-0.541599934358694,-0.147676007473798
24.0332409972298,112,3.10816293628809,-0.213357653121715,0.255980491281267,-0.178245760200202,-1.52857236540991,-0.215594287959525,-0.399726717451491
25.0346260387805,112,3.10940465373961,-0.897622745166051,-0.0578092215883642,0.0297991440322037,-1.84614087718929,-0.217951857111026,-0.435474553786921
26.0360110803322,112,3.11570008310252,-1.49936965019534,-0.0258292055776727,-0.324392210850084,-1.32709246660818,1.02811194090048,0.30771944112107
27.0373961218829,112,3.25226897506921,-1.41906335565213,-0.0600703611106823,-0.460734093676614,-0.937055701794339,0.34409836047153,-0.32468204191189
28.0387811634346,112,3.3855599030471,-1.0638032394781,0.297865927715847,-0.296290469383973,-0.924538936074726,0.409024440337744,-0.288402955573227
29.0401662049853,111.925448753467,3.44375292243762,-0.914697686113963,0.243402401888844,-0.22292869073863,-0.90461798245049,0.506833427512861,-0.261283060935649
30.041551246537,111,3.5792653531856,-0.894090485095179,0.160408914071393,-0.192110041607329,-0.856308163685891,0.225699113822891,-0.151606685973992
31.0429362880886,110.845357340728,3.69500138504142,-0.95914278559681,0.0677106806760809,-0.236759993900002,-0.920261807835203,0.0597451223978254,-0.29846039854893
32.0443213296394,108.921293628813,3.38369080332413,-1.08474664819948,-0.0305307728532436,-0.125138337950212,-0.992258009970147,0.190518004044551,-0.429604972479148
33.045706371191,107.839817174523,3.09003432132966,-0.954104705504039,-0.557072810386966,-0.183990853155957,-1.20116888613298,-1.14785798423326,-0.561296319486236
34.0470914127418,105.918523545711,3.1504931232687,-1.03988592049073,-0.203828507676842,-0.328367924901007,-1.15467629554479,0.658394160744442,0.161708973306488
35.0484764542934,105,3.13940278393352,-1.40547627179318,0.0107875521795145,-0.537144924208879,-1.04656570719714,0.736648202726508,0.109440287403115
36.0498614958442,105,3.12165346952912,-1.49990202336584,-1.92476059621224,0.229067053115539,-1.3769911203435,1.35429471404865,-0.414857773478526
37.0512465373959,105,2.98044315789472,-1.94545473684685,-0.483869210492972,-0.276544842095874,-0.218241508157668,-0.310809859551416,0.187865723133819
38.0526315789466,105,2.85444689750688,-1.75254031851664,0.0555584810997182,-0.104300610936072,-0.168936943315095,-0.424398636054282,-0.0656648158106655
39.0540166204983,104.911598337954,2.99536894736843,-0.567131653741637,0.275038988053132,-0.154239130626986,-0.635022767307178,-0.593673542934313,-0.111122091808737
40.055401662049,104,3.13778092105257,-0.111504863797694,0.664451922275607,-0.799354540247439,-1.74975316866175,0.0869448446263991,-0.456520284307245
41.0567867036007,104,3.26893520775623,-1.96321638039268,0.503558914789976,-0.061637286849588,-1.68888376925006,-0.375275453284788,-0.418781837364905
42.0581717451523,103.9074432133,3.21755414127422,-1.97805908033259,1.00266279559696,-0.120063856524575,-1.52300676208129,0.905363583566861,0.424289860679452
43.0595567867031,103,3.17667091412741,-1.51767633655071,-0.0511167653093019,-0.53245146814572,-1.06057619070091,0.399495988726551,-0.538741760451665
44.0609418282547,103.095326869802,3.29778843490308,-1.1570232756316,-0.00369933982606021,-0.434209159546454,-0.943320292799208,0.332779608602285,-0.284373255124439
45.0623268698055,104,3.36002340720238,-1.0300690216996,0.133502484526189,-0.242090092704979,-0.934437743808687,0.239936569958767,-0.173431415666275
46.0637119113571,104,2.55566087257602,-1.08157722684046,0.308741948293558,-0.143765196858636,-0.984240507239172,0.109404960444994,-0.156166006061986
47.0650969529079,103.900518005545,1.86480337950112,-0.982649245159335,-0.0635522331478538,-0.318071815333832,-0.866089232680325,-0.0552001139377037,-0.410960144929353
48.0664819944595,103,2.7701105332411,-1.06201666563942,0.0457221664828145,-0.0806694173260995,-1.10510009982672,-0.0805830554928499,-0.285477563356944
49.0678670360103,102.897747922442,3.62082939058167,-1.06217476533427,-0.257367065215726,-0.11340785690542,-1.05749100171058,-0.908792441592373,-0.780413513830126
50.0692520775619,102,3.73678977839335,-1.38065088854029,-0.265656120188173,-0.142334615607,-1.33894981447116,-0.493726036122265,-0.572408345336068
51.0706371191136,102,3.83330058171738,-1.28778018542138,-0.754352410025369,0.579572214119295,-1.08901911441074,1.31997297405106,0.141203465540744
52.0720221606643,102,3.67063427146816,-1.71730937035703,-1.96979229808546,0.195311557961322,-1.24826392466525,1.07227033944692,0.229145530303866
53.073407202216,102,3.40427386149575,-1.48622091699513,-2.15503500230818,0.129348,-1.50620463206854,0.987933703971575,-0.73079941622777
54.0747922437668,102.109177285314,3.13791345152359,-1.98289,-0.877318400394317,0.0642659640758865,-0.366753717889563,-0.127616287799325,0.192089672113172
55.0761772853184,103.110562326866,2.87155304155118,-1.96231977288359,0.0454420301929216,-0.0419432434168953,-0.414281590904901,-0.444290505469737,-0.0985115136616776
56.0775623268692,104,2.60519263157901,-0.982238503399429,0.273571583535782,-0.202532187644686,-0.372400661653929,-0.269903601504573,-0.0704670312460436
57.0789473684208,104.113332409968,2.44916051246556,-0.520227237681378,0.258319362725528,-0.218328863495341,-1.22264842910484,-0.639469817444351,-0.212789006819497
58.0803324099716,105,3.55809931440407,-0.224853336417638,0.541643510189057,-0.849430762678927,-1.82045279353712,-0.242528287544388,-0.506363646918057
59.0817174515232,105,4.53409864265924,-1.69490292469956,0.554933777484497,-0.691940298525479,-1.53132571714861,-0.506930518169602,-0.346232148854265
60.083102493074,105,4.07413873961223,-1.83141045049331,0.248751167357525,-0.188252870841046,-1.37736849432438,0.537003317884629,0.0162142111321584
61.0844875346256,105.118872576173,3.97254822714681,-1.39844155260918,0.0606685736407838,-0.423756121201282,-1.03280817174655,0.474658686978865,-0.272655952905276
62.0858725761773,106,3.90980306094197,-1.12223799168942,0.0818521476455713,-0.351150112188815,-0.949460760970833,0.562276885989533,-0.294693900058553
63.087257617728,106,4.25400914127421,-1.1047379378824,0.0995275832628532,-0.137646211068762,-0.939889389249803,0.39231223617415,-0.181939048430262
64.0886426592797,106,4.55507349722987,-0.922846324822724,0.204574332703462,-0.112582252223665,-0.982911043497739,0.310490009098687,-0.176187244394387
65.0900277008304,105.875587257622,4.41941085872579,-0.978535923482158,0.0131418182144211,-0.276071135803079,-0.830527190709933,0.152102497765007,-0.223637966257928
66.0914127423821,104.748404432141,4.29737047091413,-1.0465796511593,0.121427105176058,-0.107567690180267,-0.776764273205939,-1.52026188529859,-0.552195993626796
67.0927977839328,103,4.30870614958448,-0.982162794017271,-0.453812241856815,-0.256334062484847,-1.01582583788014,0.563537212584712,-0.0356229145888226
68.0941828254845,102.871432132968,4.32667997229918,-1.27521392143002,-0.443139056768203,0.773750567623378,-0.960788804233328,-0.266198228718301,-0.272913231427977
69.0955678670352,102,4.38812116343495,-1.45348229679522,-1.75315248123801,0.275147973090226,-1.09467647830192,1.07797427098419,0.0413339421789616
70.0969529085869,102.131337950134,4.2681151800554,-1.9795039598343,-1.32344055962775,-0.105603699641613,-0.426569303990566,-0.239030553222337,0.0726879878312156
71.0983379501376,103,4.17689523545699,-1.61313156786316,0.111031354333225,0.044855234491442,-0.260882629102409,-0.500268025075147,-0.0175644806332906
72.0997229916893,103,4.34594905817174,-0.708583393886692,0.31973252605041,-0.180716657255422,-1.09682627528405,-0.716015760387823,-0.251097775858743
73.101108033241,103,4.47760213296392,-0.0411319052792251,0.766839584462441,-0.194399637106497,-1.62671715235564,-0.0565448363512072,-0.264555479854352
74.1024930747917,103.136878116339,4.28124054016623,-0.806618745308792,-0.383548753968347,-0.623585692196268,-1.8997547776704,-0.243004329808582,-0.304984903772748
75.1038781163434,104,4.11607473684213,-1.97516472400511,0.895707026939575,-0.162917956344277,-1.22215822715035,0.837277462623207,0.0756654504225247
76.1052631578941,104,4.20938191135733,-1.45599379007532,-0.240054972408567,-0.262136947494606,-0.903449790734172,0.191047357595797,-0.271427305213255
77.1066481994458,103.858966759007,4.24310855955679,-1.11343132040744,0.0346103103551283,-0.461017339513389,-0.98271295014119,0.210023551249568,-0.254544678667092
78.1080332409965,103,4.20329299168994,-0.892067466630603,0.180037184080557,-0.264583280792774,-0.940189432133759,0.388177277008522,-0.155240897503589
79.1094182825482,102.856196675904,3.66175819944601,-1.04988440659855,0.300323103694339,-0.189897283513443,-0.899722066352359,0.560920229468842,-0.179206454485804
80.1108033240989,102,3.90620630193896,-1.06988039897515,0.16903483379456,-0.373469055313957,-0.944651645870763,-0.0509956669715265,-0.360708157785024
81.1121883656506,102,4.12071929362881,-1.03522916218885,-0.0487022349823128,-0.35298432719461,-1.2213815741857,0.174582691127094,-0.493544257048625
82.1135734072022,102,4.10122733379501,-1.11605033652267,-0.475046736222831,-0.332972883557868,-0.82799515235091,-1.47077722058461,-0.697831970042181
83.114958448753,102,4.08595398891967,-1.47787335178925,1.67406494742771,-0.768030180943168,-1.03550451045353,0.262074960975701,-0.0155596041509059
84.1163434903046,102.150728531852,4.10277225069253,-1.42793292535128,-1.88725672182257,0.370511815937093,-1.4520337112674,1.23800085968578,-0.505475266655384
85.1177285318554,103,4.13040721606647,-1.98186,-0.251469077686216,-0.0901484261476685,-0.250138121177517,-0.390669394617178,-0.0336595439023895
86.119113573407,103,4.23816125346263,-0.955168059867793,0.243246005137322,-0.256262092422215,-0.483551463621623,-0.54671401717826,-0.14417533343547
87.1204986149578,102.845116343495,4.3138568421053,-0.0238217090873459,0.671208504330638,-0.166274229960295,-1.15801809903121,-0.648158555400563,-0.228167640582398
88.1218836565095,101.843731301943,4.15822157894734,-0.813291868832553,0.0647660265416564,-0.341642548286979,-1.10341803842847,0.0240394123978083,-0.291840209405134
89.1232686980602,100.842346260392,4.03444157894734,-1.97539893351719,0.647346652118059,-0.0837868676677779,-1.26335180091535,0.798757067295555,0.0479989096862889
90.1246537396119,100,4.11067718836564,-1.52982919666231,-0.15008275633378,-0.109789682379942,-1.06592946886682,0.0286557178369056,-0.282365001565432
91.1260387811626,100,4.02000177285322,-1.096701679096,-0.0158088205802674,-0.453922203491294,-0.968308734817608,0.302097771724419,-0.305047826625193
92.1274238227143,100,3.90489904432133,-0.943294113724687,-0.0355148113248671,-0.296468193824117,-0.917754450063883,0.144311364343104,-0.205543307162916
93.1288088642659,100,3.65792466759002,-1.00704528953805,0.263624052242321,-0.133237573261818,-0.988098734507673,0.174105439571059,-0.126749097682335
94.1301939058167,100,3.63580907894737,-0.874411185347782,0.0999410384377384,-0.341786759736901,-0.855276657894932,0.0766540750000103,-0.222896111842054
95.1315789473683,99.8340360110842,3.60868141274236,-1.04914049861814,0.0657591631670092,-0.253188451511171,-1.02513422081746,0.0150294348301171,-0.475762877326338
96.1329639889191,98.8326509695335,3.54881861495846,-1.00716896675707,-0.435872675899165,-0.182473359146189,-0.778762063692817,-0.913435577594897,-0.848423725789434
97.1343490304707,98,3.539030831025,-1.16921487667775,-0.479419956539539,-0.407237986697142,-0.917717343284124,-0.431417509349912,-0.15055601180232
98.1357340720215,98,3.84859900277,-1.76419833197206,-0.428761034827991,-0.19464371971978,-1.41411232690212,1.84289665745796,-0.150399979153039
99.1371191135731,98,4.07326620498611,-1.55902694292891,-2.14387456176501,0.122648083448076,-0.578830418609072,0.424056835099526,0.0772901302650287
100.138504155124,98,3.76900036703612,-1.98227540268793,-0.775999677867735,0.0406842301325262,-0.457118536390532,0.380816239954589,-0.0922217528151231
101.139889196676,98.174274238223,3.55592422437675,-1.17597097880315,0.0630243054715571,-0.203108978393089,-0.452605636773851,-0.516369305056716,-0.0907220830456421
102.141274238226,98.8243407202262,3.89803240304694,-0.450764496643206,0.531299970620229,-0.585536389721081,-1.39716484767046,-0.223020821304098,-0.327998358730183
103.142659279778,98,4.13292047091414,-0.603639943560243,-0.201724284278648,-0.580098725300907,-1.54532529086065,-0.0150695331790489,-0.308767718558483
104.14404432133,98,3.80470387119118,-1.4015128785971,0.689677452565713,-0.633430899468788,-1.41849180164498,-0.256447438205467,-0.131151787039139
105.14542936288,98,3.91827595567866,-1.48641660109552,-0.0979516499182408,-0.263144698071277,-1.04521184959436,0.218397751021749,-0.360021201283825
106.146814404432,98,4.05641481532787,-1.26179349873642,-0.152956497650984,-0.467716944837952,-1.00486891412599,0.16080005448295,-0.298771163433943
107.148199445983,97.8174155124698,4.33598482917815,-0.923872269829728,0.0611383200180263,-0.179139886067216,-1.02878950649215,0.296039347766025,-0.249940034324845
108.149584487534,97,4.61555484302868,-1.03842062326702,0.151309177282664,-0.106555078949291,-0.949587088161071,0.347200793323026,-0.143604288088724
109.150969529085,97,4.72180198060968,-0.971345115280892,0.0863605647983092,-0.314241039415617,-0.853950808452839,0.0226856252051635,-0.24615111108191
110.152354570637,97,3.86216799861487,-1.04773344677622,-0.0711380190055679,-0.234852724176983,-1.16123786144578,0.0349913734588407,-0.477435099710263
111.153739612188,96.811875346265,3.13142554016622,-1.05334135854685,-0.432319629926582,-0.400543120396383,-1.33212399363056,-0.519184892242289,-0.491235708448371
112.155124653739,96,3.10383237534626,-1.24551674824875,-0.384016638321125,-0.0293818733315205,-1.00543112371358,0.0746476203157682,0.105673189979328
113.156509695291,95.8091052631617,3.15695894736863,-1.9415910526372,-1.07199899245169,0.0727114586539504,-0.341683180089587,-0.424716418516532,-0.106241091946877
114.157894736842,95,3.64129885041548,-1.49554487537613,0.179010332421859,0.154128051248975,-0.588772513060312,-0.641514998914669,-0.256508784205609
115.159279778393,95,4.00304988919658,-0.295545869598316,0.112866260328346,-0.18005828252348,-1.25607832133558,-0.471982910240453,-0.179680279782366
116.160664819944,95,3.77823358725761,-0.477234423458943,-0.383588668325813,-0.193767261997458,-1.90657048602311,-0.613720946616033,-0.247270446734124
117.162049861496,95,3.83782601108035,-1.85222278520008,0.549739079328894,-0.597964155878946,-1.15354626039684,0.280946329679012,-0.207449977829221
118.163434903046,95.1978199445939,3.87256770775625,-1.5609801622465,-0.0894668968338837,-0.115527466405024,-0.963844173434042,0.311023621108416,-0.222543572232054
119.164819944598,96,3.78117630193904,-1.0731218926404,0.181609080406917,-0.169791946470288,-0.97228357156557,0.254418946266197,-0.272898539425485
120.166204986149,96.2005900276963,3.68344747922442,-1.01394023677098,0.0621260830083073,-0.192172051444093,-0.952569584370783,0.266265034278534,-0.234021250575311
121.1675900277,97,3.56625351800554,-0.958682667721657,-0.0666751914914588,-0.245379175569038,-0.942401692729615,-0.0641409263660137,-0.253040855320851
122.168975069251,97,3.50849362880889,-1.09827437672453,0.112059798946009,-0.148181639637435,-0.945401829558862,-0.236815707513208,-0.311816094834572
123.170360110803,97.2047451523504,3.49355925207756,-0.939129426612421,-0.357789130464743,-0.366413252072602,-1.13865267096147,-0.323477520867882,-0.35977287796383
124.171745152355,98,3.68549972991697,-1.07185853287719,-0.390660650519757,0.981908078233131,-0.934022566381617,-0.38958986160817,-0.121498199542865
125.173130193905,98.2075152354528,3.8846354709141,-1.59616791236365,-2.15203854192895,0.252580492068813,-0.762731092455266,0.913149327511294,0.061976658451001
126.174515235457,99,4.11786305401669,-1.984960981573,-0.754274250655933,-0.340681910639956,-0.550744904683869,-0.0919443862485255,0.0952013533739808
127.175900277008,99,4.28970648199448,-1.24357077974256,0.0518366210499169,-0.172671776599984,-0.436261092516397,-0.569362572848707,-0.112364339387978
128.177285318559,99,4.22497757617732,-0.155170925901643,0.412888616342484,-0.137356331717849,-1.48251499580061,-0.311135636633699,-0.336512689146128
129.17867036011,99.2130554016576,4.38480864265924,-1.07730453738585,0.559915956986431,-0.512301180409013,-1.43775143210865,-0.365641807176562,-0.36570230636038
130.180055401662,100,4.4646879778393,-1.97568802862423,0.987058698048094,-0.275755703638299,-1.34414526320303,0.729964831082054,0.0581174820616346
131.181440443213,100.21582548476,4.25191152354567,-1.58606255955842,0.00804678782636428,-0.187835519715826,-1.05412686980209,0.0766122250436326,-0.277486265446841
132.182825484764,101.217210526312,4.34651236842106,-1.0526415789409,0.0231477657870127,-0.394619629188998,-0.933897172626222,0.265086524211864,-0.273464164215156
133.184210526316,102,4.43031990304711,-0.994387803323824,0.178053390582305,-0.2146666260377,-1.01449917289665,0.452587895870377,-0.285878188841928
134.185595567867,102,4.46668520083102,-0.987419979227709,0.169023548934074,-0.185521175901548,-0.962725643261428,0.0793365353443518,-0.147116096952565
135.186980609418,102,4.49657072022161,-1.1246553726425,0.115283436534407,-0.254088866921264,-1.12782849686093,0.211322001305516,-0.411319637117156
136.188365650969,102,4.49848837257618,-1.19714367338352,-0.0295475668812896,-0.205232146094618,-1.2364979493194,-0.25330432818167,-0.438554672399457
137.189750692521,102,4.39760462603863,-1.00118825002885,-0.213196038125137,-0.295863981936851,-0.707793823094688,-1.15703812227571,-0.667373368235937
138.191135734071,102,3.9510465027701,-1.10515370459257,0.37646833242829,-0.512295288177441,-0.929105278088676,-0.515165716502402,-0.324646247970101
139.192520775623,102,3.88309752077561,-1.70171326687746,-2.15869097814726,0.064627605145222,-1.48509878464747,1.49277121189583,-0.189705150983701
140.193905817174,102,3.86195487534621,-1.97141166417976,-0.245603993804048,-0.465302176839455,-0.247530887433865,-0.536616655250637,0.0753459141275551
141.195290858725,102,4.03401285318561,-0.744796884324488,0.348397922447301,-0.0600475517242733,-0.532956728003732,-0.741076631739355,-0.195262284606182
142.196675900276,102,4.27666569252057,-0.0550921719922115,0.969080932588864,-0.277336034808708,-1.27340777816598,-0.352645912509117,-0.401354296631279
143.198060941828,102,4.63336689750692,-0.963565511319885,0.339089524605583,-0.538212026581514,-1.12828244321326,0.03978224709302,-0.293329301939607
144.19944598338,102,4.29735715373947,-1.95655065327484,0.469485089275413,-0.0558194537160868,-1.48151713296472,0.53387525622633,0.0838494585855051
145.20083102493,102,4.00851734072023,-1.30222645650456,0.050431804327307,-0.443643243554384,-1.01518371398432,0.0576458786672412,-0.299565520432602
146.202216066482,102,3.90609567867033,-1.05239963436435,0.137755648191225,-0.268565271461091,-1.03179211392448,0.325266523558195,-0.270836221261774
147.203601108033,102,3.83713595567866,-1.09223215669625,0.191623295606192,-0.109078034987463,-0.954938975900829,0.293464758450709,-0.0907664060442491
148.204986149584,101.760628808868,3.9017856925208,-1.05154289414203,0.134562303511415,-0.205055058304054,-0.942397279887513,-0.0335204442549695,-0.224531099278196
149.206371191135,101,3.98032432132962,-1.05697129768193,0.150331247176445,-0.243844869804566,-0.955378360115125,-0.149560702232899,-0.387205893525791
150.207756232687,101,4.03267950831024,-1.08841550883012,-0.0461158910690775,-0.172205979287421,-1.04901324495829,-0.403285649489644,-0.384569452689532
151.209141274237,101,3.98584973684212,-1.88169986256056,0.0521109150999044,0.109757718674577,-0.986072105417148,-0.00298580673118273,-0.00402252618761303
152.210526315789,101,3.98677842797785,-1.49783851335196,-1.53894838062886,0.244548941501935,-1.25627962604636,0.776026468277293,0.0833520375274643
153.21191135734,101,4.16563080332402,-1.9828343628809,-1.08621533240949,0.141427797300635,-0.278458805708413,-0.256528998889054,0.0288478340576898
154.213296398892,101.247681440439,4.30967258310249,-1.40432231442615,0.0546830931742393,-0.139435975167191,-0.335837642659993,-0.466121260390389,-0.068818319115099
155.214681440443,102,4.32615037396123,-0.232072555670948,0.212435025543733,-0.164661002659618,-0.846579912811749,-0.972349661008057,-0.181925130581903
156.216066481994,102.250451523541,4.28220382271471,-1.05553393907412,0.513195268738744,-0.75401084765975,-1.47936039684822,-0.520669641727783,-0.222044476456114
157.217451523546,103,4.11032308864271,-1.88162424812643,0.305458865851735,-0.0403028066930663,-1.4678490153606,0.632123155379299,0.0799890098834731
158.218836565096,103.253221606644,4.25992500692518,-1.31214740304136,-0.188439260386886,-0.325435608384622,-0.996402383959546,0.106519006088897,-0.397239609789475
159.220221606648,104,4.32570199445978,-1.0894801938983,0.262792660155829,-0.123781114681855,-0.995612509149171,0.161741338295967,-0.180664202572349
160.221606648199,104,4.09652000692527,-0.994066789236888,0.257791794834934,-0.254682481876222,-0.989041166198911,-0.022939734914488,-0.244833526318637
161.22299168975,104.257376731298,3.91586509695291,-0.99758518006118,-0.208697423811684,-0.157855515243533,-0.900040197371758,-0.287527083078691,-0.420240398889835
162.224376731301,104.741238227151,3.89104585766037,-1.08836219342326,-0.212996200429803,-0.205673577021416,-1.11323865421613,-0.0425461428150607,-0.433763761541779
163.225761772853,104,3.82427196249733,-1.28161341682992,-0.260205370442229,-0.337466403821485,-1.07937769010286,-0.170948037590879,0.158701852638715
164.227146814404,104,3.75749806733436,-1.18030465886485,1.31244107110441,-0.947720087915307,-0.85172042545129,-0.289617629831285,-0.16128298314995
165.228531855955,103.737083102497,3.69072417217132,-1.97843926624997,-1.61555299558144,-0.130779754878199,-1.68330710580938,0.964722869310668,-0.461545124929108
166.229916897507,103,3.62395027700829,-1.98367171119642,-0.202969248960463,-0.097674978490763,-0.267037612598846,-0.392139241783916,0.0742342358458091
167.231301939058,103,3.55717638184531,-0.973667235961994,0.162405214545758,-0.163255576660861,-0.415065540918582,-0.538178428434782,-0.132963630534055
168.232686980609,103.267072022157,3.49040248668227,-0.501448111841322,0.260636540165665,-0.11081174203596,-0.988297271470087,-0.887048385041382,-0.300267676593343
169.23407202216,104,3.4236285915193,-0.164571149454885,1.01076285995121,-0.434783885194573,-1.3918047028694,-0.456460474066391,-0.404566859479605
170.235457063712,104,3.35685469635626,-1.85487599002833,0.689952964928846,-0.664498433591457,-0.994222196793415,0.214499453058785,-0.358117935928607
171.236842105262,104,3.29008080119329,-1.70042255625331,0.0043901542834882,-0.107798910585353,-1.3278393351274,0.0669191098103905,-0.060493944946573
172.238227146814,104,3.22330690603025,-1.31807778896623,0.034408056804008,-0.261725094178837,-1.02692026039058,0.142208321329496,-0.260826919669413
173.239612188365,104.273997229912,3.15653301086728,-0.997704681819982,0.245184963486941,-0.233530232685274,-1.08677272234939,0.162573003721441,-0.261466050104361
174.240997229917,105,3.08975911570424,-0.86882482249073,0.209969617611335,-0.256801779548491,-0.949842449081639,0.129655113960526,-0.132632511541307
175.242382271468,105,3.25272897506963,-1.03719983661182,0.112051867038472,-0.266485685525462,-0.797342451316595,-0.094298265799641,-0.234853216001306
176.243767313019,105,3.94692677285318,-1.02154229269568,0.037111449772854,-0.0997791706987762,-1.06625793606621,0.0172460562893385,-0.289343860799826
177.245152354571,105.279537396118,4.07721698060946,-0.985241246053008,-0.436627247391261,-0.217697950494178,-0.658071764876794,-1.17071129123334,-0.811926354792855
178.246537396121,106,4.24584095567862,-1.25438943623524,-0.213502980879831,-0.302721316541464,-1.36483315273424,0.299772056665211,0.0241808144043283
179.247922437673,106,4.53096531855963,-1.40515324101249,0.129510332206111,-0.235737443114565,-1.14507509464878,0.0339407144769907,-0.0023577652209703
180.249307479224,106,4.72037026315792,-1.74783378416175,-1.83834506445639,-0.0360482562352922,-1.55002017315062,0.986287693250014,-0.433018385055632
181.250692520775,106,4.62314578947367,-1.96937067204166,-0.236456349388518,-0.10505864285059,-0.230401574083759,-0.545099365351707,0.0392534105012194
182.252077562326,106.286462603874,4.60347580332403,-0.877335972006992,0.4907659250296,-0.244716256284938,-0.42774814195039,-0.597697370982125,-0.134560550587051
183.253462603878,107,4.80175656509696,-0.0125832268859377,0.6454116724119,-0.215119770226818,-1.18148887939438,-0.718538121741004,-0.326115998624246
184.254847645429,107,4.96811165512458,-1.55534523332545,0.807241770190771,-0.875788568080223,-1.09200214470976,-0.295092740431828,-0.33230278551158
185.25623268698,106.709382271472,4.98741339335181,-1.96519720978986,1.22789200340956,-0.283916148535378,-1.54555332634554,0.563626150743705,0.120762968016934
186.257617728532,106,4.58215787396106,-1.51728445366132,-0.121918280086756,-0.437105048031713,-1.0371068019537,0.0919245681537326,-0.262066810296927
187.259002770083,106,4.24606526315791,-1.03828285418493,0.111569304925155,-0.310732623271,-0.958316769062693,0.106889987582118,-0.238565593835022
188.260387811634,106,4.08500396814398,-1.06663258541206,0.201357607577382,-0.146227904891875,-1.05733534626495,0.288771431242852,-0.178253465824104
189.261772853185,106,3.86238105263162,-0.984665315828827,0.0942926420981398,-0.201429789442456,-0.902740894737227,-0.144547575658364,-0.0738094578940807
190.263157894737,106,3.70783297091414,-0.896211112009991,-0.0397101554722254,-0.288609319402156,-0.841795766215359,-0.114065588149066,-0.215486034372521
191.264542936287,106.298927977835,3.74289646814403,-1.03592797543286,0.210190172592659,-0.261014942195856,-0.939569445995464,-0.0231238819015197,-0.366846541097533
192.265927977839,107,3.8545892520776,-0.993437183464193,-0.296075470274686,-0.316768391010618,-0.625234895551797,-0.588072356103049,-0.652471781018761
193.26731301939,107,4.092735900277,-1.63177558671772,0.256356540266663,0.0246819761676218,-1.15054299949334,0.0764245272630235,0.0151017097523441
194.268698060941,107.303083102489,4.10188855955679,-1.52341744598469,-1.36160882548497,0.245540547368138,-1.6597909196583,1.7779256010919,0.121468690522474
195.270083102493,108,4.02332171745138,-1.9830785252077,-1.0579832509566,-0.25338060902723,-0.896450303743099,0.877583422900439,0.138335361053053
196.271468144044,108,3.70889682825486,-1.3294663302063,0.0138883761503542,-0.156587458267038,-0.878342994974655,-0.919039878516899,-0.35237734163525
197.272853185596,108,3.7405029916901,-0.284145499323824,0.146339442513656,-0.101224585580442,-1.10660173325988,-0.790755927217781,-0.380426513099439
198.274238227146,108,4.37524948060944,-1.15310609783546,0.589409474680443,-0.630173828301709,-1.17764615544003,-0.222206224356338,-0.278106678586981
199.275623268698,108,4.18221749307474,-1.90031011080533,0.374257760858868,-0.0835189715067779,-1.47665668366325,0.135521936359639,0.0658898865201893
200.277008310249,107.688606648204,3.99705986149588,-1.11063044432673,-0.045076119719073,-0.449219575844348,-0.971043725807781,0.187616530720826,-0.42613964860787
201.2783933518,107,3.83235204986146,-0.978847320945525,0.387614861580881,-0.380962344439885,-1.18726570637037,0.365998669570459,-0.289073776763184
202.279778393351,107,3.84698995844861,-0.985540848716238,0.16413914605549,-0.230082019265475,-0.880423149819937,-0.0384644853645309,-0.209376097426958
203.281163434903,107,4.06752747922433,-1.07008535128243,0.0702168400819916,-0.204034443733129,-0.825669614967409,-1.38516417050203,-0.76541294352778
204.282548476453,106.683066481999,3.64311045706388,-0.986781796200931,-0.40718803838556,-0.148914887217716,-0.921002734089643,-1.28970467392997,-0.663233695457191
205.283933518005,106,3.21869343490304,-1.38648766172419,0.730096765198836,-0.105327244095631,-0.962244313904861,-0.648114498504331,0.00950013606565911
206.285318559557,106,2.86114238227139,-1.94045764755934,-0.926687494778239,0.226106243637572,-0.658945440679071,0.604380561077641,-0.22535881728509
207.286703601108,106,2.67027171745154,-1.2129599007861,0.0584631614417004,-0.173294356795513,-0.322922198655268,-0.492897865453572,-0.175196401267308
208.288088642659,106,2.47940105263152,-0.0294562199793461,0.895841865614094,-0.320269012312354,-1.0875,-0.674489563909352,-0.350040862156925
209.28947368421,106.323858725757,2.72226522160644,-1.93708864977051,0.791793112529957,-0.384706726801186,-1.27409688960154,0.475111171257935,-0.23481282666054
210.290858725762,107,4.02468162742414,-1.41752584353331,-0.0893950267524314,-0.315115268347494,-1.11796658426524,-0.00192256869185399,-0.283512482649594
211.292243767312,107,4.74647936288106,-0.987869410913432,0.186651392109923,-0.195932191346887,-1.08045558837509,0.215545152554292,-0.213705816354771
212.293628808864,106.671986149589,4.06876700138493,-0.867760051630024,0.0564601635715551,-0.259043522535019,-0.828967260928055,-0.0173901717879044,-0.0980117517193968
213.295013850415,105.670601108038,3.64393180055396,-1.03254998483736,0.12813976754373,-0.251975375281848,-0.923897584927237,-0.256639498322119,-0.280623523108523
214.296398891966,104.338432132972,4.00201032548482,-0.983867780860781,-0.226736621881896,-0.470007830490204,-1.35175345381688,0.00798895120945295,-0.156193453447992
215.297783933517,103,4.78880355955645,-1.44719618124153,1.14632246835173,-0.240098828263531,-1.03229968951963,-0.167519033198079,-0.088208545744451
216.299168975069,102.666445983384,5.105740699446,-1.82609952356021,-1.71635866109297,0.0806180808772591,-1.48244001256856,1.12547670608755,0.00237391775796775
217.30055401662,102,4.32706869806064,-1.50904658263387,0.103273688797897,0.0713632593259291,-0.332454632195364,-0.463301647070251,-0.0406924765675439
218.301939058171,102,3.78202450138504,-0.819391589463748,0.185128291762896,-0.106659494984799,-0.486949334945167,-0.658220885690367,-0.149727940579222
219.303324099723,102,3.63478889196662,-1.29511339763541,-0.637589428919586,0.120186980740882,-1.61781119050714,-0.623693786583673,-0.492614563656542
220.304709141274,102,3.16779297783943,-1.93539280124609,0.790957599573793,-0.640975376435003,-1.46069372803562,0.661331902963062,0.0982919804468028
221.306094182825,102,3.45526191135777,-1.34919593137184,-0.12435368951553,-0.384581227993704,-1.06533690199492,-0.00207791171856879,-0.245791967815927
222.307479224376,102,4.61621909972319,-1.03970915678824,0.0426621506927778,-0.354080867034124,-1.06739442272848,0.169934100560531,-0.25611109862473
223.308864265928,101.656750692525,3.91808349030462,-1.02104803820767,0.113453133651435,-0.125502629765092,-0.983798553327076,0.152518812327907,-0.184846756230586
224.310249307478,100.655365650974,3.38179206371198,-1.00023957828267,0.199947613310023,-0.186363396116104,-1.05605485316488,-0.15677135233141,-0.245214107141764
225.31163434903,100,3.20371576177285,-0.993994781160172,-0.310384765387944,-0.39495602262428,-0.780404178489946,-0.673710527846607,-0.709358257535728
226.313019390581,99.6525955678717,3.02563945983388,-0.927829097629277,0.127233977156887,0.607484690035369,-0.844042829474058,-0.474369366956682,-0.0845705353889606
227.314404432133,99.34878947368,3.45885894736834,-1.90504134953642,-1.36560127523767,0.0562460287080905,-1.41167894737429,0.619673662432417,0.069742003632512
228.315789473684,100,4.50243125692502,-1.5675827411509,-0.0263378802828775,-0.148670988537852,-0.33183299722472,-0.607414351304684,-0.157605534339457
229.317174515235,99.6484404432176,3.99971343490312,-0.0681145136544857,0.789466704307218,-0.195628679620493,-0.997984326585848,-0.682016888250912,-0.328462907833464
230.318559556787,99,3.49699561288075,-1.07781775900102,0.515536820082559,-0.608893626038654,-1.43409055404126,-0.879321371194992,-0.355215468159545
231.319944598337,99.3543296398848,2.99427779085884,-1.59335022023277,-0.0447787065178193,-0.145418417678904,-1.09308898677249,0.0136095796040322,-0.227574795483501
232.321329639889,100,2.70504379847648,-1.06090747989253,0.187172299843948,-0.34169198615157,-0.994477484410506,0.240563997216777,-0.221779532549772
233.32271468144,100,2.86476721606643,-0.986710175075918,0.192094177838367,-0.145277361758706,-0.96657632586084,0.045849300974113,-0.208517851924913
234.324099722991,100,3.02449063365653,-0.997377421139225,0.207976901662003,-0.261069201783225,-0.821469730026767,-0.447555195174803,-0.238288418919938
235.325484764542,100.35986980609,3.18421405124647,-1.03485891759678,-0.278273853182974,-0.118070226073381,-0.557392589111922,-1.05033940683402,-0.801982704337786
236.326869806094,101,3.60681133656511,-1.37879086229681,0.0590778101701108,-0.0369921050056125,-0.824069905264812,-0.426105490286396,-0.0230780951626034
237.328254847645,100.637360110807,4.5684664265932,-1.9663,-0.748626501317797,0.395128260119749,-0.682195001944794,-0.0409514712787587,0.180327997876072
238.329639889196,100,4.72377292243779,-1.17349191133805,-0.0137568935082022,-0.207983543604917,-0.720522809215592,-0.876630675385993,-0.291316774035797
239.331024930748,99.6345900277047,3.97934914127448,-0.263545862844826,0.467669658410523,-0.084905482242678,-1.90542099740026,-0.949614,-0.522419969613124
240.332409972299,99,4.71051042936276,-1.97411075629704,0.943804553881607,-0.465307132192251,-1.2264382340852,0.236626331460816,-0.392965845572983
241.33379501385,99,5.0825815927977,-1.51531080329441,0.0021314769780402,-0.256009598333642,-1.01640275689485,0.0968245969923293,-0.393982896055536
242.335180055401,99,4.74092403739621,-0.889602674396854,0.186243023873534,-0.388609993774663,-1.01576488716041,0.102516108152517,-0.285047936285197
243.336565096953,99.3709501385001,4.53737487534627,-1.00705091412545,0.174922519793952,-0.128954587642818,-0.982132947360837,0.223634865682018,-0.149539066481118
244.337950138503,100,4.4994982340721,-0.876909668278985,-0.0278457594712176,-0.392506089808229,-0.958546843077012,-0.287364499292711,-0.306910093698885
245.339335180055,100,4.25588628808863,-1.02078796244864,-0.18658790981387,-0.337718963475554,-0.508873843635591,-1.18759906697847,-0.853628355455064
246.340720221606,100.375105263153,4.21858605263142,-1.26862774435489,-0.255206942436405,0.201174160450586,-1.05584475506813,-0.262402404835842,-0.0608863906832915
247.342105263157,101,4.46846628808864,-1.72681663938755,-1.99427360883098,0.00966378941414392,-1.15135786948324,0.770349694887835,-0.00456680925852697
248.343490304709,101.377875346257,4.50687941828256,-1.32344836563147,0.0310273179519163,-0.136723803324403,-0.370744216066058,-0.591827878129587,-0.156151000018872
249.34487534626,102,4.46047606648202,-0.352819532751604,0.356962997452091,-0.0942823088424783,-0.994463754910946,-0.815116187987696,-0.363325482499217
250.346260387812,101.619354570641,4.20361199445973,-0.23514656651399,-0.665625985521512,-0.359671713758892,-1.64653104665024,-0.942584463406442,-0.454712676466011
251.347645429362,101,3.85274670360118,-1.93206218837097,0.496041628814083,0.104829485874856,-1.57254508357924,0.551842203561552,0.174750735314237
252.349030470914,101,3.64442518698062,-1.05999894121239,0.242638749306788,-0.283652434288998,-0.929545597734468,0.332727746964163,-0.295139101409899
253.350415512465,101,3.70090831024929,-1.05357088334308,0.187368602475771,-0.225386421976387,-0.983822076370976,0.312421340069455,-0.157146829576018
254.351800554016,100.613814404436,3.74155105955679,-0.9529950418022,0.0378058946267752,-0.23183949609866,-0.942756304819835,-0.0296115488174921,-0.318859429014567
255.353185595567,100.387570637115,3.75312206371191,-0.866083918563624,0.0163760767450352,-0.209907153224935,-1.01607436869291,-0.279598561666779,-0.273087746088653
256.354570637119,101,3.79217818559557,-1.18881103651163,0.0785597295350112,-0.66470634657914,-1.43951114211794,1.0878413661001,0.182721327181924
257.35595567867,101,3.85387393351801,-1.27150241995484,0.407942779635734,-0.122562140436222,-1.08541240616569,-0.281262017577891,0.0315537339871267
258.357340720221,101.391725761769,3.86655146814404,-1.97628767491996,-1.61821491465843,-0.109338633993931,-0.998672265934438,-0.853259773956498,-0.379412667039061
259.358725761773,102,3.87992221606649,-0.622559590125639,0.35747740457022,-0.23266630519298,-0.460459424580761,-0.923914826326425,-0.182482228825958
260.360110803324,102,3.89452741689751,-0.325857760849684,0.269315849723216,-0.134021033541018,-0.902951404454161,-0.920287154416835,-0.253339580341546
261.361495844875,101.604119113577,3.96398387811639,-1.17273515653097,0.400292192572514,-0.72933311914347,-1.28267446131343,-0.845359669805352,-0.406355614945798
262.362880886426,101,4.01206423130197,-1.97771,0.52732502057291,0.0570257675649959,-1.65541942456936,0.462083906931903,0.15825780442034
263.364265927978,100.601349030475,3.85395054016618,-1.35159155064531,-0.187059143097068,-0.423170440397728,-0.940397287845154,0.213300654995589,-0.231326715439881
264.365650969528,100,3.68477621883662,-0.935524362251416,0.228809786574795,-0.364547695659071,-1.07909008671273,0.0192806965046367,-0.182318205713455
265.36703601108,100,3.52591342105262,-0.991159915789083,0.0950511068471442,-0.274302031578292,-0.974839129350502,0.292215937549604,-0.194464599461567
266.368421052631,100,3.4176086218837,-0.990368861099732,0.109687158949742,-0.302136623796923,-1.0177497470275,-0.114021506656331,-0.277246340716867
267.369806094182,100,3.2310338411819,-1.20697334983559,-0.0626311137210657,-0.206849705910047,-0.978703271183439,-0.022110438137621,-0.472232313009895
268.371191135734,100.405576177282,2.91157532317623,-1.60320916242672,0.185996189487185,-0.0411365813596873,-1.42820574498719,0.779871822199118,0.130538255454943
269.372576177285,101,2.59211680517085,-1.48763384678796,-1.50485038422783,0.2984584320337,-1.50858249434166,1.44716037221829,0.333088489733219
270.373961218836,101.408346260384,2.77836855955713,-1.98427727776374,-0.245726441786211,-0.0226516381392153,-0.489839272486538,-0.0251700614528769,-0.253623089076152
271.375346260387,102,3.48098454293626,-1.21299901381013,0.110530911351708,-0.209936247449898,-0.268367879398621,-0.620137679741676,-0.0688784722404588
272.376731301939,102,3.64122617728536,-0.217810347582605,1.04157907657267,-0.560478331521572,-0.87712591650041,-0.955799684841008,-0.424961782875084
273.37811634349,102,3.78033148199443,-1.88643872679233,0.677828374190402,-0.658043627355209,-1.17217128078875,0.075995618237363,-0.478060129840751
274.379501385041,101.586113573411,3.88480097645431,-1.59246742382396,-0.00528785733935562,-0.117981418831867,-1.11222682825244,-0.0470470732863203,-0.257561946158308
275.380886426592,100.58472853186,3.90260570637123,-1.07147418171587,0.240627919666664,-0.303945673249415,-0.999386201482126,0.209804704252463,-0.225083997312946
276.382271468144,99.5833434903088,3.78005119806093,-0.948753146032147,0.137202612589868,-0.27132220201135,-1.05817794617738,0.30645434111632,-0.141534019788439
277.383656509694,99.4180415512419,3.74840114958444,-0.893451732687108,0.0701630502935946,-0.285639418286426,-0.908137024946744,-0.0817281149635384,-0.137091891421965
278.385041551246,100,3.86226363573407,-1.02819578794072,-0.0331110807085017,-0.299413109372806,-1.33197486681996,0.0655105805319652,-0.440355092479971
279.386426592798,100,4.0385056232688,-1.32077725978834,0.249556628472656,0.0739368546544103,-1.05560486004517,0.162627280876253,0.250909617758241
280.387811634349,100,4.31344089335177,-1.36836265207976,-1.36888246299616,0.258901077572745,-1.13659766193395,0.317408128423077,0.182378681171513
281.3891966759,100,4.46831524930747,-1.98453237963293,-0.331729216674106,-0.127236152612171,-0.312210620389272,-0.808453281253731,-0.142398682571221
282.390581717451,100,4.43543477146815,-0.604144465636976,0.166484259282511,-0.159490924656024,-0.293164163949967,-0.985064526305849,0.0615896209346442
283.391966759003,100,4.26197626038773,-0.189946427702072,0.972295576718634,-0.454860702481519,-0.394823478211062,-1.05838970103228,-0.117553584816909
284.393351800553,100.427736842101,3.8712157894738,-1.81702883184086,0.387853252884252,-0.758974409500672,-1.40002671054699,0.274982754383832,-0.487659315619608
285.394736842105,101,3.78625150969534,-1.30617414383944,-0.184105139524824,-0.310676731609189,-1.08598381817872,-0.464016488543469,-0.146266838580887
286.396121883656,101.430506925203,4.16853525623254,-1.01594902469229,0.171127093978289,-0.290930789813286,-0.953807608504671,-0.240544156873802,-0.12504188053177
287.397506925207,102,4.25264127423821,-0.880931013753318,0.0185379788337082,-0.273572901515927,-0.813737156291972,-0.443670275653661,-0.0755091099174596
288.398891966758,102,4.0778712049861,-1.00066765424582,0.143588660534383,-0.254076222096158,-1.26161028732464,-0.273664648913671,-0.22900184630004
289.40027700831,101.565337950143,4.19067722991689,-1.0636213684317,-0.137051673122595,-0.384439002776712,-0.349434080644833,-1.03038001100099,-0.776730645411335
290.401662049861,100.563952908591,4.29118427285322,-0.714389440421827,1.78542252803896,-0.397263080922906,-1.02682086161203,-0.767557017292797,-0.0387253350508561
291.403047091412,99.5625678670403,4.37343303324099,-1.94317674514929,-1.74914093844372,0.00337190009239902,-1.25454726450037,-0.598926466221305,-0.0547778821436341
292.404432132964,99,4.2463714404431,-1.53869241522804,0.0461121645809973,0.0655518513001522,-0.56620382839295,-0.940284213188466,-0.246891203555081
293.405817174515,99,3.95805581717453,-0.450742628580621,0.303783543454487,-0.0656427639082112,0.0294989637331585,-0.53380322665504,0.0218588971527005
294.407202216066,99,3.88267155124652,-0.771048013425094,-0.756336465851285,0.235722393677036,-0.697377369728623,-1.38390442439643,-0.504011664832098
295.408587257617,99,3.82188639889198,-1.93946564993888,0.383180217292507,-0.14473685339185,-1.77504366366437,-0.256106051891995,0.0532862459514198
296.409972299169,99,3.78216145429363,-1.07261664890913,0.038832109112333,-0.312177548548808,-0.906457490699393,-0.129990811946709,-0.316972364466199
297.411357340719,99,3.68356293628816,-0.992504167251131,0.00216737892893762,-0.248431203943873,-0.998973062419033,-0.0541659795761371,-0.32474526020283
298.412742382271,99,3.53974412049861,-0.858291172711549,-0.0248593295401138,-0.273782645433763,-0.916121778175163,-0.421993687530303,-0.404246106699718
299.414127423823,99,3.4508661911357,-1.08548286579194,-0.142519363018911,-0.259746329917419,-1.23808380148325,-0.37803118713697,-0.577427016815874
300.415512465373,98.5501024930791,3.46758423130193,-1.13421661945553,-0.427644614954626,-0.00534075935693815,-1.41362345297652,0.00950216908903214,-0.152599414301269
301.416897506925,98,3.63234711911363,-1.44517945421714,-1.53266799953987,0.348906881770606,-0.811470733324681,0.114511315498358,0.107694129156281
302.418282548476,98,3.5192585872577,-1.85169606397039,-0.0592777975447882,-0.0833384845251629,-0.448480805104608,-0.778271520630849,-0.16127677382197
303.419667590028,98,3.15348842105259,-0.641598899110952,0.153127378279866,0.0113367484611921,0.334224888888514,-0.88688344639169,0.0522524910323742
304.421052631578,98,2.97028502770088,-0.491835822776943,0.761846760308144,-0.306116875354013,-0.266672009456788,-1.51815642951963,-0.44837336536705
305.42243767313,98,2.787081634349,-1.93744670801168,0.602403929877394,-0.571632162918892,-1.80480257739422,-0.0746744153952977,-0.115236214097092
306.423822714681,98,3.0860149376728,-1.25935840319565,-0.0979530023291132,-0.206892496706907,-0.989068899504676,-0.371837933651914,-0.28087184628441
307.425207756232,98,4.03826702216073,-1.02079409972485,0.0906927486148561,-0.253026135734288,-0.994757596260974,-0.0331241991928379,-0.359156571094089
308.426592797784,98,4.38490906509673,-1.07092646754071,0.143267741781345,-0.27259637239486,-0.937953628811933,-0.326707973307834,-0.290735151600255
309.427977839335,98,3.92015124653741,-1.12302958930418,-0.175738614824722,-0.20303905058522,-0.917999667588207,-0.87794826315736,-0.740463157897687
310.429362880886,98,3.71097124653745,-1.62902614948869,0.0859644584711631,0.225054659296517,-1.73479313382843,0.0747188828485292,0.105533995345355
311.430747922437,98,3.84037022160663,-1.74513277138245,-1.75884893979192,0.0153901033391164,-1.09235522986068,-0.352428515814143,-0.0513209243855848
312.432132963989,97.5334819944637,3.9267468698061,-1.53327111761074,0.196585096474401,0.00370492378812191,-0.635605324058033,-0.686542723891551,-0.0919824149537221
313.43351800554,97,3.95676839335179,-0.22275289148128,0.196735004184503,-0.0985246073809804,-0.344442203395569,-0.469762258786961,-0.0509658517665876
314.434903047091,96.5307119113613,3.79561283933509,-1.2469550230667,0.71235481027878,-0.704893938144417,-1.2696696561795,-0.508880304234017,-0.595747846167208
315.436288088642,96,3.65681174515229,-1.33828487677446,-0.0124081609920888,-0.270978810976994,-0.908160805646437,-0.170774948867494,-0.18326261720213
316.437673130194,96,3.86573070637122,-0.98241375510058,0.0160853434309921,-0.22128430308991,-0.965726459209452,-0.0610415869361705,-0.213254653960486
317.439058171744,96,3.98323567867036,-1.00677265651076,0.0143763813562808,-0.342564870025315,-0.929306012469099,-0.379026487187428,-0.278244985108722
318.440443213296,96,3.98431717451524,-1.07958541972677,-0.197436103696348,-0.231898453331671,-0.974900110117307,-0.440408625247963,-0.815674761457987
319.441828254848,96,3.86863412742371,-1.46577937845769,-0.529572420589127,0.232731969417462,-1.94935082893177,-0.0516820752650916,-0.0828469171713845
320.443213296398,96,3.83183449445982,-1.7347883017914,-1.76372444783719,-0.143162478665921,-1.16446399457498,-0.716713765418729,-0.46043163561454
321.44459833795,96,4.07797994459843,-1.77701314568568,0.214939840344349,-0.0399549525827651,-0.554428391138568,-0.594191267486406,-0.0259796058596114
322.445983379501,95.5196315789517,4.06213526315794,-0.156796736841888,0.920969160087044,-0.478676021935379,-1.44506412661818,-0.0610210206002104,-0.633391241038403
323.447368421052,95,3.72184459833786,-1.91298047092138,0.821468015717924,-0.492558887346826,-1.90628749559475,0.147135492456525,-0.239144720684918
324.448753462603,95,3.63792806786698,-1.01772411911399,0.10880889612274,-0.239383421052929,-1.04839184920124,-0.00177230115284149,-0.343678306399669
325.450138504155,95.4845235457024,3.86797124653744,-1.02259483324072,0.288627334402716,-0.263949290085382,-1.04720894326407,0.046757997648482,-0.181181129366709
326.451523545706,96,4.00742138504154,-1.04755204063436,0.0239796003504608,-0.171269191016922,-0.938187426808551,-0.47508108097058,-0.193361061021999
327.452908587257,96.4872936288048,3.88358855955676,-1.03235324542435,-0.00620694294195451,-0.223732074231247,-0.889972536474218,-0.978189327696086,-0.21775742845838
328.454293628808,97,3.57481148199459,-1.50843519476869,-0.236510922981264,-0.0531000326667254,-0.930719676842307,-0.83365861544589,-0.257993896507497
329.45567867036,97,3.51179984764543,-1.80481362525653,-1.4276923062974,0.152555945130231,-0.690990237752544,0.333454259167553,-0.092038903195374
330.457063711911,97.4914487534588,3.74147251385051,-1.86195055797775,0.0833371904096161,-0.089281991885406,-0.782495242979931,-0.915794633985503,-0.276928111319698
331.458448753462,98,3.90640288088642,-0.489569989253441,0.263687414756493,-0.222469886761838,0.079134088202362,-0.666070926950826,-0.0181185801865387
332.459833795014,98.4942188365612,3.87591581717446,-1.47991326577531,0.704637988083251,-0.672867700723954,-1.13640083086333,-0.51655018834036,-0.261303559978964
333.461218836565,99,3.70586060941831,-1.56648147506663,0.0365451509651517,-0.0766185093472732,-1.42017326869999,-0.491010338872711,0.00789914986227332
334.462603878116,99,3.58396629155123,-1.10844686908681,0.106615364164555,-0.197761958803073,-0.931920279288247,-0.0951157,-0.202661
335.463988919667,99,3.51785234764545,-0.940833047784414,0.187050977357662,-0.206083831485713,-0.943824610961309,-0.254371264291991,-0.180401511472895
336.465373961219,99,3.4517384037396,-1.07799355293075,0.0874750477582156,-0.12519585113653,-0.802719857398697,-0.5442855201898,-0.125684967838889
337.466759002769,99.5011440443168,3.38562445983382,-1.07242901981015,-0.213576986228192,-0.471574514396551,-0.726115125467561,-1.00041890696611,-0.143502530022537
338.468144044321,100,3.48954695290861,-1.79488461878587,-1.52724961944684,0.138401543066773,-0.913565650828294,-0.169444209565765,-0.326916626094207
339.469529085872,100.503914127419,3.78607709141261,-1.82493927976907,-0.232457288076342,-0.302438886414199,-0.827603472656097,-1.04738353358921,-0.319177988569121
340.470914127423,101,3.97395480609418,-0.318865948635624,0.118672843044482,-0.120459042564866,-0.214445644039737,-0.582273934605186,-0.0604003919159238
341.472299168975,101,3.69914894736817,-0.751558315827951,0.360869397246724,-0.660942095714743,-1.18524866313365,-0.495724818446139,-0.878364763104216
342.473684210526,101,3.04449347645437,-1.90480248076201,0.317843303629856,-0.160978229608357,-1.23886162325448,-0.379949,-0.064128336706556
343.475069252077,101,2.99560199446002,-1.11557171854266,0.0298432616445059,-0.333162872812233,-1.02229863819588,0.185430998373603,-0.153304982594005
344.476454293628,101,3.61410746537384,-0.998199939058205,0.109470334072076,-0.288091368421048,-0.94591721446806,-0.0502629762681373,-0.0304597212920423
345.47783933518,101.512224376727,4.04559083102498,-0.981052103731628,-0.0322180265991954,-0.203234331525138,-0.926865038242328,-0.127102495422456,-0.387902401828123
346.479224376731,102,4.2732957756232,-1.04690745844901,-0.113919315486156,-0.307768176058795,-0.901481491272879,-0.736348429691274,-0.398355498632124
347.480609418282,102.51499445983,4.46050595567869,-1.15170619245201,0.179961520013259,0.0605238767996066,-1.15349661465817,-0.384121125823202,-0.0807861969564396
348.481994459833,103,4.60407953601103,-1.36958871566503,-1.65177801061191,0.445586273500704,-0.610124660281961,0.0959844220455653,0.0941305521940403
349.483379501385,103,4.62794778393351,-1.96570667808745,-0.162786454294555,0.0555536299056613,-0.489770446261609,-0.527271872420218,0.0704640439237193
350.484764542935,103,4.52912042936292,-0.78519487701889,0.269277091613775,-0.16602785223776,-0.072896112758252,-0.650644878000705,-0.0298358105362676
351.486149584487,103,4.4354608864266,-0.467196509742381,0.293442582822435,-0.567966180019062,0.309815588983381,-1.30935698025847,-0.623681800343332
352.487534626039,103,4.37747781163434,-1.93617477044644,0.76759028091215,-0.452856747059848,-1.64414243462762,0.144898906910036,-0.523580527695219
353.488919667589,103.523304709137,4.29824644044323,-1.28185516338554,-0.00859184959063864,-0.203231126346863,-1.06821352303746,-0.429907239731548,-0.257056021409345
354.490304709141,104,4.15788730609415,-1.0984755124666,0.343688487535819,-0.222687113574231,-1.00516294736854,-0.0895342597601352,-0.184571361219056
355.491689750692,104,4.05434360110805,-0.926404269756115,0.0349446202193118,-0.315155173174911,-0.805889016301429,-0.328990529689626,-0.286792652354262
356.493074792244,104.527459833791,3.98875288088642,-1.05452269279979,-0.00844156928532758,-0.194647000514505,-0.874737146060289,-0.75144074502276,-0.0912575786929899
357.494459833794,105,4.07238171745145,-1.19020033647764,-0.230008865753773,-0.323691164810106,-0.832665445197461,-1.03308356236442,-0.0231273055130954
358.495844875346,105,4.14232412049861,-1.5047185318451,0.072043510528667,-0.153857035743519,-1.27134009205659,-0.210583412619707,-0.260884753739132
359.497229916897,105.531614958444,4.04413331024935,-0.958244614918885,-0.146425879772563,-0.0768913848602406,-0.944358507845121,-0.11735433610787,-0.221490757155201
360.498614958448,106,4.30156,-0.826757272752288,0.0355120636380658,0.77490127273193,-0.680057016137859,-1.54571661289012,0.277578048382579
361.5,106,4.46861621421965,-1.00829100227547,0.312243991698859,0.300834261661368,-1.3017861009394,-0.0481481855282388,0.222333717248706
362.501385041551,106.535770083098,4.18993409510621,-0.966692332913155,0.284394816670975,0.223701094434199,-1.35507680110334,-0.17964480554168,0.375480216074535
363.502770083102,107.53715512465,3.91125197599252,-0.996442809890833,0.252781458190135,0.281440223043232,-0.888199062692915,-0.505288146163964,0.97793734082222
364.504155124653,108,3.60646460526322,-0.984533350877416,0.204154399814886,0.253439657433523,-0.719747324314619,-0.14897912715938,0.0170880688442095
365.505540166205,108.539925207752,3.27607263157887,-0.936592414227569,0.177887942817759,0.314933871189773,-1.01169352716073,0.16532592897393,0.283043693694615
366.506925207756,109.541310249303,3.44421355955661,-0.966866564029898,0.22497547112477,0.296670065206072,-0.988239561208129,0.229439449810791,0.236998289618612
367.508310249307,110.542695290855,3.83535052631581,-0.988090590512381,0.214544919806082,0.254196843767288,-1.01563670844165,0.0155786015396007,0.199624110870746
368.509695290858,111,3.97509881578942,-0.984184691212519,0.216989652716716,0.200569712945871,-1.01417734208136,-0.135638976517618,0.230068365778505
369.51108033241,111.545465373957,3.78438637119111,-0.951504260590492,0.194708673805843,0.300025191135674,-0.943200848269147,-0.109518317975016,0.253314881878061
370.512465373961,112.546850415509,3.69696365650984,-0.98237824344163,0.201906984074979,0.269334500325145,-1.09339958257482,-0.348781148219962,0.4197039921768
371.513850415512,113,3.84806451523546,-1.00171954570863,0.199854381719698,0.255885758726355,-1.23533369686348,-0.685982805018065,0.0775808051885153
372.515235457064,113.549620498611,3.8495115166205,-0.974714916896189,0.235363008310773,0.284373108036648,-0.811901415792984,-0.730712108769472,0.0361083987657075
373.516620498614,113.448994459838,3.39129853185606,-0.959994606648329,0.222680408702626,0.233059386715279,-0.904833891301235,-0.471239866141337,0.533145894551703
374.518005540166,113,3.35236306094205,-0.989492360111935,0.208980841994989,0.267785338506668,-0.817192335641969,-0.424647220914279,0.347192830101585
375.519390581717,112.446224376736,3.55964088642665,-0.973406853567267,0.197517157417922,0.271924856337387,-0.929747042748136,0.0704657556065168,0.673275008075449
376.520775623268,111.444839335184,3.26771211218831,-0.957289213296257,0.230762940245513,0.557475355359053,-0.926299223080007,0.425623846997677,0.214349329581513
377.522160664819,110.443454293633,3.38493692520761,-0.953909390974075,0.226240188758272,0.260940722195193,-0.898705567978545,0.479521418237879,0.149120282343557
378.523545706371,110,3.87559556786709,-0.970094290022823,0.201359022851617,0.268290014400831,-0.882306259472461,0.244036894336459,0.203589051704065
379.524930747922,110,3.48803842105308,-0.970414043063894,0.213548014350005,0.276247985650962,-0.953481042294512,0.419318285728192,0.240209194927325
380.526315789473,110,2.9255535734072,-0.959217642663094,0.124551092330423,0.343711490315307,-0.310294408320966,-0.237293254311215,0.877260397696327
381.527700831025,110,2.91760925207756,-0.956263320124639,0.144430037334543,0.327288471520986,-0.978039888099429,0.403692316904352,0.282546635741832
382.529085872576,110.563470914123,2.90966493074792,-0.935407197681731,0.127123,0.33370223369747,-0.942989648719886,0.301371948977355,0.678589828746232
383.530470914127,111.564855955675,2.36492548476419,-0.961807376833004,0.0543667472861024,0.335472766183956,-0.961701169226265,0.0322367155367147,0.248151066486123
384.531855955678,112,2.56066586795918,-0.943329387087348,0.0794219660982354,0.373618045044068,-0.945863837223838,-0.0774048839719287,0.271875851072638
385.53324099723,112,3.82252784856912,-1.08921689761582,-1.39671216703625,-0.167858745743842,-0.935404146330102,0.70499086473723,0.0323643720592554
386.534626038781,111.430988919672,5.08438982917791,-1.33811980213371,0.673955806878772,-0.374056666003268,-0.797269456092218,1.78065121877875,0.329574302424799
387.536011080332,111,5.04828074792224,-0.888988398890813,-0.146435819439675,-0.0105149380530622,-1.96039713674219,-1.15967544597886,-0.283848405440061
388.537396121883,112.143562326861,4.33243389196687,-1.59188700615184,0.909761078496559,-0.0948447987176672,-1.64085846661337,-0.41827949504499,0.434079343758553
389.538781163435,113.573166204982,3.99517742382269,-0.93782844381168,0.080990922082905,-0.556536815519829,-0.901865492837607,0.413342662546775,-0.419347521683063
390.540166204985,114,4.44171890581672,-0.817181449951009,0.474792119880979,-0.316643047084543,-0.840097007058075,0.613862211411298,0.136683054672109
391.541551246537,114.575936288084,4.87147900277008,-1.42176259695322,0.0844806419664118,-0.700706759002309,-1.13038290074114,0.446047523427632,-0.246488161000239
392.542936288089,115.577321329636,4.72510655124648,-1.97667,0.470796863807023,-0.236124869224929,-1.37149160141,0.654541418954285,-0.339125383121548
393.544321329639,116,5.07079207756226,-1.97565567573732,1.41980711149866,-0.42627800168335,-1.19386375427269,0.0223301560131723,-0.268848071205536
394.545706371191,116.580091412739,5.27384423822706,-0.5860156918422,-1.26130805188514,-0.30247583451571,-1.59352012664575,-0.480697569393467,-0.358967214218023
395.547091412742,117,5.01726936288093,-0.961169844439442,0.600639541876128,-0.321538739831269,-0.773452938023995,-0.808776183022104,-0.395712862719918
396.548476454293,117,4.98317394736846,-1.986,0.027451254906359,-0.205216659066289,0.119781612206266,-0.724300022680357,-0.1257800423166
397.549861495844,117,5.13176947368417,-1.9833886334258,-1.96244930627193,0.175690839631369,0.271494599028552,-0.367966270079668,0.156498273895597
398.551246537396,117.585631578943,4.16355184210499,-1.61318095395961,-1.49601458320392,0.0158258190199947,-0.585237975860765,0.529382367555235,0.425259963975486
399.552631578947,118,3.35728490304707,-1.77104716976993,-0.876785759975893,0.317647402975157,-1.08629813766822,-0.208818578967574,-0.307958038537624
400.554016620498,118,3.41410349030471,-1.08746530549453,-0.419051785385225,-0.572016110065723,-1.79869093401348,1.28230471339295,0.0865913508248951
401.555401662049,118,3.4709220775623,-1.11885890184519,-0.0171769510454024,-0.202951739877373,-0.991469592593441,-0.214427557918782,-0.492368333693274
402.556786703601,118.591171745148,8.00298868421026,-0.931806637137699,0.226817241048479,-0.172205717440699,-1.04719424930857,-0.149742706894647,-0.390807484776339
403.558171745152,119,6.93338576176972,-0.850203781972648,0.221349628225737,-0.28852512938688,-0.802620814192391,0.192898005756097,-0.132975303907928
404.559556786703,119.593941828251,3.90280281855942,-1.01297388691885,0.122405897505863,0.0238610583453837,-1.01197574929828,0.250372804698679,0.119285057490294
405.560941828255,120,5.00858725761805,-1.48534154117333,0.129431680684977,-0.348811541172111,-1.16070688282218,0.277778326825921,-0.117640559603257
406.562326869805,119.403288088647,5.28912846260395,-1.92867092242657,0.317308358689752,-0.400922090879808,-1.05509817891079,0.375453157393613,-0.32956484521846
407.563711911357,119,5.07207650969527,-1.9761730495002,1.07897235677526,-0.735640021931384,-1.51062100052879,0.708781710126071,-0.149273879448743
408.565096952908,118.400518005545,4.96553414819948,-0.984301907324169,-0.263536073994046,-0.406683165878968,-1.45148943215384,0.975022225246166,0.211051680049392
409.56648199446,118,4.91880675047944,-0.240757720275327,1.34324757158307,-0.599320908649387,-1.75014888232799,-0.46104197326433,-0.516787624320134
410.56786703601,118,4.91774297144684,-0.0197048176631734,0.378800277001743,-0.199435456641073,-1.50957005154918,-0.459700824270862,-0.26641625891347
411.569252077562,118,4.91667919241423,-1.11820634347788,0.517495392955807,0.0808191445940537,-1.2974065650841,-0.510581874425519,-0.117608213848889
412.570637119113,118,4.91561541338163,-1.94082439751266,0.10450437257371,-0.137775720800767,-0.00696156520371901,-0.67306910090087,-0.191538693062303
413.572022160664,118,4.91455163434903,-1.98366708779976,-0.968374332401069,0.0599658849324234,-0.0213416584828066,-0.652914363664028,-0.150423561214031
414.573407202216,118,4.91348785531643,-1.84413431125087,-2.15770054520268,0.465127385920965,-1.46126887348898,1.28398828560744,0.0989294555526496
415.574792243767,117.390822714686,4.91242407628383,-1.94161099961002,-1.9873215295789,0.107649980678357,-1.31481870562737,1.00946184236226,0.14921232758443
416.576177285318,116.389437673134,4.91136029725122,-1.9581644354869,-0.5457891197168,0.245570128698584,-1.78779015235165,0.767074541564002,0.254234034906885
417.577562326869,115.388052631583,4.91029651821862,-0.559030202044087,-0.871313162142008,-0.160117094725137,-0.506355577235538,-1.67568322671534,-0.870266333788509
418.578947368421,114.386667590032,4.90923273918602,-1.04264761772795,-0.838622329777732,-0.502842659304444,-0.88391314985956,0.269778918711028,-0.79199676676714
419.580332409972,113.385282548481,4.90816896015342,-1.07508285106029,-0.0139839183583588,-0.132240917963793,-1.44050911498517,-0.167663788313522,-0.919421461353324
420.581717451523,113,4.90710518112082,-0.872269221119705,0.0873942303817579,-0.265652035649445,-0.937042981071191,-0.182197208035467,-0.257261731764431
421.583102493074,113.617487534621,4.90604140208822,-0.795717864261394,-0.0770327265970675,-0.227896531161313,-0.841008287503277,0.312833652529409,-0.00633891070164161
422.584487534626,114,4.461819099723,-0.933560830275449,0.0229490573117416,-0.149099668059846,-0.683503435596527,0.0465139547859057,-0.164803964682059
423.585872576177,114,4.30856290858737,-1.46235825357141,0.0272801617201131,-0.267511963102408,-1.0309254137366,0.143952522536427,-0.102821410623347
424.587257617728,114,4.58213128808862,-1.8915211357229,0.242275651199314,0.0119466980195866,-0.900380984018635,0.00257959744292399,-0.0813464168228846
425.58864265928,114,4.45770828254835,-1.97620786346156,0.726411839676153,-0.329144738095131,-1.48908951067953,1.12347470964212,0.214335271797762
426.59002770083,114,4.3042175900277,-1.88484152732121,1.27431774440876,-0.904169460724982,-1.29669658043012,0.251127989736414,-0.352238221178793
427.591412742382,114,4.32292346260388,-0.429616066100138,1.12729188319967,-0.670610249893689,-1.99754547923182,-0.44862240595184,-0.441799272946599
428.592797783933,114,4.60192300554004,-0.482822858039233,0.530106639125202,-0.388280547085663,-0.99779454302238,-0.668381130845492,-0.1448414085734
429.594182825484,114,5.05207245152361,-1.22766512021447,0.564774055958714,-0.043013506380308,-0.369888076926505,-0.768957200514397,-0.297070687267832
430.595567867035,114,5.49729324792228,-1.88512247328434,0.237784564308131,-0.0578800989287058,0.158583379292556,-0.461081069141359,-0.0183705940984803
431.596952908587,114,5.66278207756233,-1.98305138378259,-0.491765465484621,-0.24424419730219,-0.272615020331731,-0.35351637770555,-0.0026886214732857
432.598337950139,114,5.63984034626038,-1.98276498820142,-1.99330753851953,-0.0875586762331578,-1.72317221804486,1.44321303705732,-0.264047158332623
433.599722991689,114,5.89305365650968,-1.74270965968241,-0.500554650732414,0.174314684785503,-1.11793781400226,0.669828053061394,0.527486535629593
434.601108033241,114.635493074788,5.8768093005539,-1.84440092623801,-0.192476159725531,0.0264495877956875,-1.83163140864204,1.10738347493917,-0.114787532677606
435.602493074792,115,5.56041668975073,-0.824365517462327,-0.966734878888607,-0.131922299142,-0.904306101719346,0.124117358507781,-0.000999294958765301
436.603878116343,115,5.53643578947373,-1.03045575317184,0.0355569669574371,-0.0551191684244935,-0.982346636831654,-0.202229663051373,-0.541512968446341
437.605263157894,114.360351800558,5.59547084487535,-0.997665863342375,-0.0213922142194461,-0.295881845798637,-0.896108606144873,-0.0965507444472529,-0.41410235960791
438.606648199446,114,5.58399997922437,-0.860559075253933,-0.0240791230146707,-0.388059557248399,-0.830578746999089,0.13996368236414,-0.210162094182642
439.608033240997,114,5.38220168975079,-0.903326511143748,0.337793225344625,0.0188876596599579,-0.854203412481811,0.417047212708324,0.114575588595848
440.609418282548,114,5.05798826177282,-1.17488259785356,-0.0165121144488168,-0.252300647354534,-0.979965408345331,0.477609613637598,-0.192362746627021
441.610803324099,114.645188365646,5.13792016620486,-1.88016559557059,0.339805163430615,-0.467891448752352,-1.0735860925994,0.176950202295203,-0.165083325840325
442.612188365651,115,5.47478609418283,-1.97731174626038,1.39296559557206,-0.54950213119239,-1.34372450597715,0.410016645411492,-0.346549200388122
443.613573407202,115.64795844875,5.78916299168988,-1.41071844627857,1.24642376577045,-1.05893538728977,-1.5943418143965,0.645073017994971,-0.0243410720423934
444.614958448753,116.6493434903,5.94110677977839,-0.346152061492592,1.14831431304215,-0.527666241058907,-2.02083,-0.447170547390064,-0.384075926050099
445.616343490305,117,6.00040379501387,-0.865543179531247,0.273527616262661,-0.828113060962601,-1.90660107555225,-0.302777176215525,-0.45185733745739
446.617728531855,117,6.14571735457061,-1.14845322910712,0.428321100762638,-0.0425581887467657,-0.228764953234265,-0.896401156571218,-0.209748549928214
447.619113573407,117,6.15106124653737,-1.98497,-0.507051500616305,-0.148509799383264,-0.0391750345945978,-0.250717134405826,-0.041605268802939
448.620498614958,116.345116343495,6.0378847091413,-1.98393,-1.4405202975002,-0.0728772456650276,-1.98134446339967,1.30835965239792,-0.520698377688152
449.621883656509,116,5.57339653739601,-1.61541623462106,-1.45651757626883,0.326513207690996,-0.88966196240081,0.232785791255976,0.412347744703689
450.62326869806,115.342346260392,5.56561112880873,-1.97254427592614,-1.18413151966887,1.08803874728824,-1.04105924900598,0.317066356750229,0.378118753190383
451.624653739612,115,5.96180411357344,-1.15577698231022,-0.71398369763274,-0.190661909395706,-0.588188206459056,-1.58421782206376,-0.799969977541243
452.626038781163,114.33957617729,5.75211587257642,-1.06957531301459,-0.34804453173211,-0.517476675572869,-1.24739145778426,0.0540244594387689,-0.758759961940412
453.627423822714,114,5.47446020775623,-1.03508832525467,0.159588465605675,-0.244883143696393,-0.914427795488738,-0.124614812243476,-0.44759918427608
454.628808864266,114,5.37050141966755,-0.910292443547851,0.122920191238732,-0.342024063396308,-0.79803971127082,0.0790398671415602,-0.136384857660623
455.630193905817,114,5.49464052631576,-0.803488521706573,0.137988382174836,-0.138329279190304,-0.873116947370557,0.16689758463516,-0.111442012801836
456.631578947368,114,5.75233695290867,-1.20914912822742,0.0326792518118628,-0.20283496755536,-0.86482421247275,0.196964451671959,-0.205616044695366
457.632963988919,114,5.37361002770097,-1.63971687674584,0.0913243830361183,-0.196405387798125,-1.2396760085241,0.114653,-0.194226545173569
458.634349030471,114,5.1133394598338,-1.9758080332411,0.532427886213077,-0.292210890278531,-1.27036026941861,0.302420273997881,-0.275393201271124
459.635734072021,113.329880886431,5.13299664819944,-1.97671362485157,1.72278205778977,-0.802428752684712,-1.08993614960455,0.348542210544187,-0.301547955724534
460.637119113573,113,5.67076803324111,-1.57909147674568,1.46570682359577,-0.967924651258736,-1.41137314459014,0.955896192522114,0.127381325691644
461.638504155124,112.327110803329,5.88701937673135,-0.991414945524555,0.500945292177839,-0.636153952560681,-2.01661672917121,-0.618806938424289,-0.635566812279613
462.639889196676,111.325725761777,5.75528216759002,-0.389870881597481,0.509060562690732,-0.412484778148784,-1.26009653764457,-0.552428930728825,-0.274286135778096
463.641274238226,111,5.62004567867042,-0.987981253156056,0.502872597978988,-0.0379464392899591,-0.566347032592882,-0.842006346586543,-0.455307669452661
464.642659279778,111,5.31861389196677,-1.66236666742933,0.284657767433305,0.0315193572252098,-0.28677927562864,-0.830824952221485,-0.22804598372705
465.64404432133,111,4.92605426592783,-1.98497,-0.637836639938522,-0.228882996344783,-0.0844745281079018,-0.134050662069378,0.0623523450150968
466.64542936288,111,4.53349463988925,-1.98355986872221,-1.59400971103159,-0.000792664693080127,-1.04093388339369,0.313264417429982,0.434999928922368
467.646814404432,111.681199445979,4.78497085872593,-1.71298442205448,-2.15773776630564,0.396898979101005,-1.53249463072436,1.16803820125978,-0.0186623548893399
468.648199445983,112,5.3873640443212,-1.7396913458251,0.0591612162877855,-0.39229936385707,0.168418975064216,-0.498043390040959,-0.0770740596423363
469.649584487534,112,5.70267966759006,-1.95031473992373,-0.19176968787789,0.308378748516745,-1.92261336818926,0.969834860294422,-0.306721563160453
470.650969529085,112,5.67265159972303,-0.798096986105212,-0.929347014004049,-0.257879322576274,-0.434183800315286,-1.73024824246072,-1.18342443773634
471.652354570637,112,5.54053386426591,-1.15007413665704,0.00587980679151472,-0.0906386648198908,-0.916606681929339,-0.201901210037344,-0.508038756884545
472.653739612188,112,5.97113217451495,-1.13511161498561,0.263467840937117,-0.133690169829023,-0.622101476253174,-0.972552474372125,-1.19347748400445
473.655124653739,112.689509695287,6.2254708033241,-1.01812810885131,0.111943899947261,-0.34498835057017,-0.889606232293647,-0.100548005828376,-0.513542555491918
474.65650969529,113,6.23097842105263,-0.935676786968976,0.293777363419203,-0.351931649142993,-0.868891270680578,-0.0154898932386966,-0.21605946616383
475.657894736842,113,5.11472314404444,-1.17337311004426,0.17551834177418,0.0912556528627863,-0.906042314783465,0.471274925203141,-0.124053614203819
476.659279778393,113.693664819941,3.41637661703543,-1.33193339797086,0.0599695111729243,-0.369406725847017,-1.16510716127561,0.17586259532017,-0.330034397081511
477.660664819944,114,4.50914789473645,-1.40959323060108,-0.200049386749708,-0.316177314425818,-0.992859978079293,0.0453278768863826,-0.110750817958793
478.662049861496,114,5.48807969529091,-1.78387091758579,-0.00565276627231298,-0.230208533585955,-0.9346420331738,-0.0835576841766347,-0.0552657130789445
479.663434903046,114,5.68028554016616,-1.97771,1.57974823753342,-0.757356801361755,-1.61518490757347,0.826908156998113,0.0193624221795886
480.664819944598,114.699204986146,5.36780113573398,-1.42528299262542,0.88029390240752,-0.691456046838336,-1.51022927977598,0.665692977846932,-0.0651435226499649
481.666204986149,115,5.11127966759006,-0.835651213704931,0.228863277854776,-0.771879239151945,-1.84057837535312,-0.525347518518474,-0.633150465206627
482.6675900277,115,5.00969916897506,-0.000849371334665155,0.776657106150992,-0.345536006981229,-1.92844550134588,-0.565481993925961,-0.484550819966005
483.668975069251,115,5.3120039335178,-0.630758410662331,0.48768586411484,-0.180777009880299,-0.826098221331346,-0.720288354533286,-0.174321720929979
484.670360110803,115.70474515235,5.47022751385042,-0.996093997079044,0.409166585801141,-0.249823622103633,-0.474432998619975,-0.966875766717214,-0.354103357935201
485.671745152355,116,5.45987819944598,-1.86232485391358,0.248450625411408,-0.0180222451720677,0.196582482890559,-0.471318570211079,-0.145715090560852
486.673130193905,116.707515235453,5.1118800484765,-1.98364373591879,-0.85109472668714,-0.0252387401625554,-0.0590759633876166,-0.106747366748122,-0.145342195562948
487.674515235457,117,4.60025740997214,-1.97698869806177,-2.16078756232692,0.345257520771233,-1.97935848083171,0.765783687230243,-0.112016517600543
488.675900277008,117.710285318555,4.67057186288082,-1.7785880332208,-2.15873155678656,0.535466001121217,-1.91812213850186,1.02409068255426,-0.337258674791973
489.677285318559,118.711670360107,5.01935927977847,-1.87103767310752,-2.02784718560453,0.169232853979349,-0.995980155288903,-0.187659127963213,-0.192407393926155
490.67867036011,119,5.58549580332392,-1.94504519901161,-0.768874661018173,0.406889080392731,-1.89912575412988,1.47511579244572,-0.188632391434399
491.680055401662,119,6.06123110803329,-1.23344022739425,-0.408516517274612,-0.258914412398845,-1.73890765948381,0.558046589521324,0.0416851553952278
492.681440443213,118.28417451524,6.44630371191122,-1.03578700464405,-0.732967491956007,-0.302023675382526,-0.0857521709350662,-1.96997376916109,-1.47975655077738
493.682825484764,117.282789473688,6.83137631578949,-1.08519694915109,0.147719706510877,-0.0773533216772792,-0.947214723475556,-0.207797617384855,-0.505943045109832
494.684210526316,117,6.3750791828251,-0.927586591913722,-0.056556833394033,-0.303492588789744,-0.873615543366086,-0.120490694824701,-0.354906734081604
495.685595567867,117,5.99891440443214,-0.910827557600018,-0.0245082521716043,-0.282644816091115,-0.879294958950625,0.0265911529715096,-0.0767944676597006
496.686980609418,117,5.83678515927972,-0.880557587259471,0.218178063702489,-0.182401112478857,-0.933362425616134,0.496658526738553,-0.116992498537979
497.688365650969,117,5.38241889196683,-1.14521804005947,0.0219524033089697,-0.170781471937123,-1.01399237070901,0.323709251594109,-0.259338701486503
498.689750692521,117,5.22014709141275,-1.30588222844173,0.0897336480238359,-0.490038860546984,-1.09854691051845,0.355877608158939,-0.346043834256115
499.691135734071,116.274479224381,5.2482659833795,-1.56618161671679,-0.0466576339506868,-0.184360355165087,-1.33282060748206,0.157712711197,-0.335122768602373
500.692520775623,115.273094182829,5.60311736842115,-1.66693289196593,0.0665541285322268,-0.158043007201478,-1.18222268801507,0.264367572506104,-0.231043226096127
501.693905817174,114.271709141279,5.69333682825487,-1.97280323838385,0.841696544810802,-0.543525120624875,-1.40005073916539,0.406327101453141,-0.349343336212427
502.695290858725,113.270324099727,5.60331731994459,-1.97807753126839,1.40850563754956,-0.830946406020848,-1.43599043398884,0.984695306555722,0.18622153370235
503.696675900276,113,5.85071603878101,-1.36376407557388,-0.930477213337451,-0.400410496417133,-2.02030524653745,-0.373404921672464,-0.615012843497892
504.698060941828,112.267554016625,5.82499697368421,-0.0619468844844621,0.955089576759987,-0.31719551270285,-1.41699709141345,0.252570481222978,-0.330997394510552
505.69944598338,112,5.61808578947359,-0.197206382413285,0.407414969244527,-0.34807199329099,-1.53998592039734,-0.672389163659241,-0.584974170951453
506.70083102493,112,5.44897840720223,-0.516561151207952,0.330211417076106,-0.30946198006867,-0.958714594914033,-0.630227041956241,-0.211472678898852
507.702216066482,112,5.46315944598341,-1.06912171234658,0.439652806814414,-0.0651001349374632,-0.368827629349913,-0.94000476633418,-0.340565914310422
508.703601108033,112,5.54809692520774,-1.80666595567435,0.0638973299606288,0.081622848595386,0.211795979255955,-0.556653015022019,-0.202731821327524
509.704986149584,112,5.31366279778384,-1.98321632586263,-0.402915978017897,-0.245989065464289,0.154562854050903,-0.473523338381386,-0.0188469850152831
510.706371191135,112,4.94584405817184,-1.96083973984578,-2.15954444176786,0.231067204291975,0.144877390028915,-0.255595442107136,-0.121388414624984
511.707756232687,112,4.5780253185595,-1.77481745225397,-2.158,0.487719537958696,-1.91286392082254,1.02292127249558,-0.2966014906535
512.709141274237,112,4.37512684210531,-1.71714552153281,-2.15621992344502,0.732748969376327,-1.50803018575772,1.14620639628363,0.275098189164907
513.710526315789,112,4.23973958448753,-1.65265063572467,1.10517006864802,-0.753859188399686,-1.38836849209491,0.493663285992327,0.200413806170808
514.71191135734,112,4.78526150276974,-1.976342042936,-0.131338599546123,-0.0202735949965287,-1.7942953416445,0.190035101999181,0.62477918925238
515.713296398892,112,5.60579139889196,-0.684994998565263,-0.714849681866325,-0.302817401120028,-1.73700025569222,0.00649316898584561,0.333134177484087
516.714681440443,112,6.25963891966782,-0.974674046123696,-0.850088516202754,-0.160131687959873,-0.0972104612676431,-1.8080332651216,-1.43944085395781
517.716066481994,112.750451523541,6.5517181440443,-1.07831199445914,0.21909509664708,-0.298447249437623,-0.937717279554257,0.00630025138174569,-0.755522411277637
518.717451523546,113,6.30056489612175,-0.980360354817118,0.140123613058527,-0.297914826868913,-0.936922899744491,-0.276821698167721,-0.387056070476966
519.718836565096,113.753221606644,5.8818307340721,-0.96980361687681,0.00586732178248089,-0.447426452802121,-0.85776205660559,0.0373604110610249,-0.282353072818213
520.720221606648,114,4.90594047091386,-0.999702704066828,0.0263087891977537,-0.28856009402087,-0.808127808791804,0.014967678681568,-0.289574679618992
521.721606648199,114,5.21139108033217,-0.828965772499532,0.138377924008826,-0.467360137817519,-0.925047883681538,0.103074172256698,-0.221642203600498
522.72299168975,113.242623268702,5.36963552631577,-1.35299501385807,0.113554094378277,0.0349793374212613,-0.917117486428767,0.00464563548586862,-0.206614772057313
523.724376731301,113,5.25110157894741,-1.43396160663827,0.0380003624212171,-0.300522204053019,-0.958463537537929,0.374598229763093,0.0114394973340441
524.725761772853,113,5.11711576177285,-1.62640470893372,0.100222019981727,-0.178536606910546,-0.892851151572553,0.693897958700662,-0.149056163393464
525.727146814404,113,4.81720022160681,-1.97587822462832,0.504778001438368,-0.212798158384577,-1.52398974078671,0.51427703777252,-0.274169761978543
526.728531855955,113,4.45732246537398,-1.97495667590029,0.43264881324005,-0.188090643051183,-1.49978656485378,0.339717443015041,-0.300274481893122
527.729916897507,113,4.5169341274239,-1.97843790397037,1.45487469068389,-0.58124367501735,-0.996093352259191,0.217416863530576,-0.0504575805924335
528.731301939058,113,5.0050085526315,-1.38373058552185,-1.19077180278774,-0.191645901388924,-1.45227126401064,0.417665132643524,-0.356642078882472
529.732686980609,113.767072022157,5.59339736842122,-0.227446120038776,1.14708272968887,-0.579390593377169,-1.500579067425,1.20603522621575,-0.0780262816099027
530.73407202216,114,5.07730986149605,-0.433725232894291,0.457581758205715,-0.293664880125791,-1.96046596953574,-0.583118726433608,-0.581261298454262
531.735457063712,114,4.84473578947369,-0.741114936197142,0.405869940190889,-0.26854796810562,-0.223862002516668,-1.01208077443107,-0.325057463656759
532.736842105262,113.22877285319,4.85732820637119,-1.85818975570979,0.164033134105528,-0.0206588862499326,-0.321084204318193,-0.744988494912694,-0.316195503227089
533.738227146814,112.227387811638,5.36438465373968,-1.98566915452235,-0.363484536421394,-0.103439365868066,-1.09651335179587,-0.702606091821489,-0.190325413965733
534.739612188365,112,5.31848864958461,-1.98419014404448,-1.05248712602854,-0.131073790882773,0.188886403444432,-0.51450926720476,-0.126041220815582
535.740997229917,111.224617728536,5.01678635734072,-1.87383888567578,-2.15905204734329,0.361185443210049,-1.84453193911803,1.55440515858106,-0.136883376213352
536.742382271467,111,5.30824221606624,-1.94341787077084,-1.53361618462819,-0.158401299394582,-1.85581249310387,1.3682389861584,-0.154964224984467
537.743767313019,111,5.57066495844874,-1.96289202970285,-1.11340297049895,0.901057284268964,-1.30006972295332,-0.737362201346691,-0.356393828080408
538.745152354571,111,5.75245639889203,-1.06662602916752,-0.52335468926492,-0.433170907391527,-1.82305672708782,1.15541100566309,0.0213432004651537
539.746537396121,111,5.82686861495844,-1.01294587601503,-0.65041222819368,-0.410715450820084,-1.95260977839241,-0.113469957791981,0.469404596605648
540.747922437673,111,5.69297759002765,-1.1385553013244,-0.502005442621893,-0.555078512102788,-1.0044713192382,-0.351680126071215,-0.338369393349496
541.749307479224,111,5.50125240997235,-1.08810563435455,0.135280725757753,-0.133406451516967,-0.962962320155344,-0.0855279430481737,-0.526661676021337
542.750692520775,111,4.61531451523528,-1.08757898661215,0.153806766167731,-0.323458300998924,-0.944847128362031,-0.186075696254035,-0.302266099743461
543.752077562326,111,4.66197927977825,-0.955423181871749,0.0473565382760017,-0.26632339146069,-0.828130950347745,-0.143373482194844,-0.234090814585482
544.753462603878,111.787847645425,5.09123299168978,-0.823722681438507,0.269907002777202,-0.358698604724384,-1.04803467730429,0.432708713291619,-0.296152013731413
545.754847645429,112,5.27722933518011,-1.17141095985423,-0.030849802765494,-0.101021353424064,-0.879095989724403,0.321899450826311,-0.222607397274369
546.75623268698,112.790617728528,5.39985701523545,-1.58501475013762,0.251577865153486,-0.131021655512342,-1.07657859418768,0.166950628813766,-0.2078955069479
547.757617728532,113.792002770079,5.52746851800559,-1.48092817466777,0.136914045623631,-0.319500130772196,-1.1027799471179,0.149190364290943,-0.288740142983689
548.759002770083,114,5.43448011080334,-1.97530952132977,0.586941707378767,-0.298635950808403,-1.35401911357296,0.169961863139418,-0.206894836845702
549.760387811634,114.794772853182,5.29482790858722,-1.97747490304493,1.66543786632033,-0.815955190782295,-1.26143245029879,0.571103481957254,0.0600641402800302
550.761772853185,115,5.16248986842108,-1.2300061961171,-0.805238803882685,-0.677730143653675,-1.35883278197729,0.713306508807791,0.00740580452687661
551.763157894737,115,5.59293570637132,-0.498612803981507,0.987407543397119,-0.64628533597377,-1.92302330194906,-0.59734846036449,-0.687775734050867
552.764542936288,115.798927977836,5.71648582409971,-0.231104368985989,0.522146178681201,-0.292252478180396,-1.38268819944866,-0.447621423824292,-0.630317027702267
553.765927977839,116.800313019387,5.69209709141274,-0.659416954838724,0.608469924614199,-0.227421135247008,-1.16814694944972,-0.942777182129407,-0.278701605612246
554.76731301939,117,5.45585901662061,-1.70161075636217,0.140711309644037,-0.0690852391241533,0.224854237304115,-0.488538724472322,-0.126552426729087
555.768698060941,117.803083102488,5.55044224376713,-1.98393,-0.797953390346507,0.115857596036127,0.118584533131792,-0.537773288763005,-0.17352349453104
556.770083102493,118.804468144041,5.76365213988929,-1.9825555570277,-1.59318456933259,-0.0775111648293625,-2.01684180416802,0.728904498847442,-0.276770487172672
557.771468144044,119,5.39163055401665,-1.7408667298718,-2.15697,0.344942290997292,-1.92951849402435,1.61845431120284,-0.347391186241742
558.772853185595,119.807238227142,5.1328118767314,-1.5498838703412,1.72817216969228,-1.10472849490369,-1.14957554015305,-0.612335382443152,-0.332454995945989
559.774238227147,120,4.95797505540153,-1.04880911590004,-0.489403644244556,-0.372847057952319,-0.970958346621971,0.277561036735603,0.390545006145119
560.775623268698,120,5.06897239612194,-1.02223866344471,-0.597717688675969,-0.25079152799972,0.0519809982628547,-1.97516228598643,-1.49140594279029
561.777008310249,119.188606648204,5.45894542936278,-0.991884506989747,-0.545553155641299,-0.337177444309581,-1.33037328854717,0.000111546504398818,-0.699325225963921
562.778393351799,119,5.90519264542904,-0.90406868418988,0.0119485491429489,-0.433066038793338,-0.962559021663072,-0.382246931281878,-0.408118957700918
563.779778393352,119,5.60629587257587,-1.04086313960699,0.0476450106121929,-0.364179577787171,-0.875244703604631,-0.167740333412096,-0.359437088536172
564.781163434903,119,5.54546220914128,-0.763036557979795,-0.04358429186648,-0.56841615232336,-0.853249281327472,0.0706332690740652,-0.386732855190987
565.782548476453,119.816933518001,5.60994639889194,-0.942678817654566,0.091383595214754,-0.120319268223745,-0.820860098639065,-0.0034860241153022,-0.279299782367731
566.783933518004,120,5.36282796398922,-1.16599471837322,-0.0422222590019836,-0.268291722067237,-1.03118022853573,0.404488354021089,-0.362939413131964
567.785318559557,120.819703601104,5.40087686980615,-1.56316371695137,0.133018455958863,-0.0561863590037231,-1.12317280470758,0.0422919074117961,-0.345367002073506
568.786703601108,121.821088642655,5.54013948753462,-1.85420681438559,0.168681771459221,-0.303020113574927,-1.4991529824582,0.5000139344429,-0.137922281352949
569.788088642658,122,5.6851257894736,-1.91488960525407,0.343812056724103,-0.2981408125072,-1.38130631515201,0.499174999357362,-0.363034000593038
570.789473684211,122,5.56158205678656,-1.75141764550867,1.00221786689317,-0.831140304662972,-1.180991606643,0.0390481514875928,-0.203189454913243
571.790858725762,122.825243767309,5.36614674515231,-1.9745232178061,1.03290415258739,-0.945100580932538,-1.71846830018266,1.05181724755795,0.120191509729559
572.792243767312,123,5.22053148199449,-0.226772547825243,0.446616877540841,-0.266421827321934,-1.09877470942286,-0.581952155307733,-0.341624551394425
573.793628808863,123,5.22401678670357,-0.736568991239903,0.543131564302156,-0.18751008548203,-1.11147668151595,-0.57826337897457,-0.324839924125445
574.795013850416,123,5.26282045706373,-1.92995104178836,0.251363110447192,0.077670041316865,0.0501337170822762,-0.720488973397019,-0.236797767797394
575.796398891966,123,5.73595365650974,-1.98544055401632,-0.192141061472649,-0.238749253263463,0.104906198836025,-0.4586579069592,-0.0379647998276642
576.797783933517,123,5.78896350415516,-1.98289,-0.890862440869031,-0.156767129397416,-0.354609440452861,-0.0686007439127516,-0.114389000917151
577.799168975068,123,5.70762099722999,-1.80892592678298,-2.15736820546799,0.209330521491198,-1.78639106317549,0.820346659750943,-0.0484221618230225
578.80055401662,123,5.96395096952922,-1.73562523996401,-2.15766611093215,0.466573430715285,-1.40755589930185,0.754410593226452,0.277863931193294
579.801939058171,123.836324099719,5.65041207756238,-1.34606067490839,1.62087207257283,0.329180737157978,-1.45085365978921,-0.688174183114925,-0.292461386223881
580.803324099722,123.162290858731,5.17566544321358,-1.2286457815635,-0.49952752583985,-0.556965254783199,-2.01423964384616,1.07108536040201,-0.024075110268146
581.804709141275,123,5.52828581717491,-1.04202115094153,-0.749626956120224,-0.261874121557467,-0.229553024673878,-1.46694959721948,-1.3805243372489
582.806094182825,123,5.32699157202208,-1.25121651248958,-0.0451049807470004,-0.317075646703832,-1.03004065396501,-0.0841365715233964,-1.36595382327207
583.807479224376,122.158135734076,4.94454760387822,-1.10747335483104,0.11953278888486,-0.110517925383735,-0.745423179456066,-0.695113405539823,-1.0156484946816
584.808864265927,121.156750692526,5.50726350415451,-1.09612042105779,0.209817752273026,-0.283241512458268,-0.974757425657353,-0.419180955010555,-0.385042717909368
585.810249307479,121,5.45467612188352,-1.06389273522223,0.296474910463537,-0.364201387144774,-0.762548791238014,-0.0211244734655198,-0.289988700324735
586.81163434903,120.153980609422,5.26603998614958,-0.880437753700323,0.0337632114271055,0.0842020909876847,-0.847748865767051,0.504156206538726,-0.0877787710215164
587.813019390581,120,5.09128828254856,-1.40699163434221,0.100442372056895,-0.195651012333072,-1.15750051059705,0.227953386539954,-0.410462648434765
588.814404432132,120.848789473679,4.88917907894757,-1.4829064912214,-0.00705787894296578,-0.29980922222427,-1.33739993421121,0.141983529936475,-0.503680046052601
589.815789473684,121,4.68084592797776,-1.93554558736199,0.310857869805043,-0.394820261515316,-1.36237133700836,0.133719560636779,-0.376591190953825
590.817174515235,121,4.99171282548471,-1.97771,1.78227677302909,-0.785662326679954,-1.2773225115421,0.200362272392373,-0.124790970454622
591.818559556786,121.852944598333,5.26896479224361,-1.97771,1.85416666093442,-0.69147742664569,-1.83711699528091,0.766173129339978,0.229192614309078
592.819944598338,121.145670360114,5.51311748614975,-0.452832642298876,1.143746967842,-0.875517237384632,-1.91377641995052,-0.708178580152978,-0.711807062597449
593.821329639889,121,5.39638227146811,0.0213750501512562,0.823752177082315,-0.189949459832727,-1.32084786704085,-0.709037843557223,-0.611448561669318
594.82271468144,120.142900277013,5.54857687673123,-0.113468426080734,1.04049204900704,-0.395464734505999,-1.58573525656825,-0.832391506925932,-0.583113940777861
595.82409972299,120,5.77548572022142,-1.22289970282483,0.373442773871378,-0.168177709398368,-0.283517519027342,-1.08050120875776,-0.375814635858147
596.825484764543,119.140130193909,5.73546858725757,-1.98295700728426,-0.119412362569955,-0.164756809067302,0.129871070766226,-0.562242667965234,-0.183281087887751
597.826869806094,119,5.23538249307479,-1.98412739833794,-0.600221651412153,0.0796515864836427,-0.467519232925183,0.335535851257995,0.071374042151648
598.828254847645,118.137360110808,4.65090408587286,-1.94339392471755,-2.08924401156884,0.152753208483018,-1.56024851159802,0.396797738429657,0.233410264918835
599.829639889197,118,4.56115144044322,-1.87934786701978,-2.16006,0.152838628826544,-0.708138961180601,0.340882398874202,0.33723013571222
600.831024930748,117.134590027705,4.57281757617729,-1.96483771522898,-0.831470550327211,-0.483981252235701,-0.954503534445881,-0.406168987163668,-0.42123169720056
601.832409972299,116.133204986154,5.27469922437659,-1.80269666736273,-0.361617343970793,0.0941574658448259,-1.32397122973413,-0.777078493320829,-0.0895720803952943
602.833795013849,116,5.45826739612185,-1.23348767007265,-0.618076081872615,-0.34954528487408,-1.70526364552311,-0.124286275178922,-0.565150329966286
603.835180055402,115.130434903051,5.51108044321333,-1.16405835640829,-0.325896882735479,-0.114045205702222,-0.49360898380465,-0.957252762883426,-2.21089311628164
604.836565096953,115,5.34674709141271,-1.36346473234487,0.0668602452948747,-0.555764985993536,-0.38073918284069,-0.981457285299417,-1.88199662050109
605.837950138503,114.127664819949,5.07975918282558,-1.07672,0.160891640810896,-0.191165154643676,-0.99672838142802,-0.565344684806559,-0.482947134288081
606.839335180054,114,4.80112880193929,-0.810423922703831,0.0271513289387359,-0.31791628393582,-0.993200467897968,-0.157921109924244,-0.431892607289506
607.840720221607,114.875105263154,4.61904157894729,-0.891341652179522,0.150501059044404,-0.307309972534588,-0.804534618688033,-0.174050087000908,-0.220901374864171
608.842105263157,115,4.45521498614959,-0.822322258388102,0.0277306156161365,-0.34029269862068,-0.811181454294745,0.04553049528575,-0.195414167587734
609.843490304708,115,5.09407066481954,-0.98476328930281,0.101693372956277,-0.0826919142580516,-0.832564282961898,0.41732782079792,0.0544352802073137
610.844875346261,114.120739612192,5.39475223915068,-1.25706989041421,0.101345958523666,-0.280798795113056,-1.19984663432708,0.243568160665139,-0.359129699331799
611.846260387812,114,5.60618801477384,-1.45483090028188,0.0685036738185849,-0.225447242367527,-1.21181098210823,0.161780931257567,-0.146798172860864
612.847645429362,113.11796952909,5.817623790397,-1.74571037592253,0.246423277807088,-0.0315598671658259,-1.39075158533078,0.236602685201445,-0.284257528758603
613.849030470913,113,5.18065670360166,-1.97703566177954,0.770681674732523,-0.381238746492625,-1.51188896758148,0.554443599684209,-0.234662939732769
614.850415512466,113,5.02037738227144,-1.97687797256294,0.98309915904626,-0.636511447283692,-1.17894382554053,0.433051898687977,0.00187090593212066
615.851800554016,113.886185595564,4.97025806094182,-1.18774227146657,0.536330248762881,-0.535920032310839,-1.6177293910325,-0.404972624493355,-0.580183971742649
616.853185595567,114,4.88331529085876,-1.1403623884536,-0.0850564783853734,-0.817605855942321,-1.57845722027545,-0.294485446328374,-0.473010665061187
617.85457063712,114.888955678667,5.19082613573443,0.108425909606108,0.894206440454965,-0.187404676883329,-1.25443663896141,-0.807987771004833,-0.412759040625657
618.85595567867,115,5.56643064404449,-0.575868888381819,0.493404621692088,-0.333224951730846,-0.794989498994328,-0.689948918317051,-0.363132140846856
619.857340720221,115.891725761769,5.99748736842103,-1.12856776126324,0.39090539964966,-0.174729766761121,-0.448504046914114,-0.687584612495032,-0.576938014028779
620.858725761772,116,6.43775631578923,-1.41908486652105,0.29117505474858,-0.00187940343602106,-0.0147761977463421,-0.681089670366373,-0.162636032319933
621.860110803324,116,6.07825559556749,-1.82428265686847,0.0591746363013927,0.0706302933881498,0.0348465915934389,-0.455930657111878,-0.150268460074698
622.861495844875,116,5.83549146814399,-1.98066679132021,-0.308563329388854,0.0751710004006663,-0.10932242937863,-0.0859280620932549,-0.070934764490028
623.862880886426,116,5.07116850415532,-1.9805882363797,-1.4888647690541,0.0061353322439193,-1.49095960521303,0.442319053074899,0.0933969054677537
624.864265927977,116,4.21781821329702,-1.79396624853876,-2.15808641076386,0.190501793415694,-1.94099904889598,1.32474158808363,-0.404923829116555
625.865650969529,116,4.92587839335236,-1.72967892809805,-0.989448748884892,-0.11242768145264,-0.948535473519745,-0.182592336498205,-0.173829519028103
626.86703601108,116,4.88602999999998,-1.71583558352456,0.247202581226032,0.111214256302833,-0.909063806612915,-0.820538140394356,-0.679810824832041
627.868421052631,116.902806094178,4.69462526315797,-1.4804698580264,-0.308124927965392,-0.302192378003345,-1.68177772684022,0.865495063530269,-0.618595102189902
628.869806094183,117,5.08956700831069,-1.14269370269619,-0.779765300057017,-0.285041726651567,-0.0267912130535836,-2.00582746504586,-0.778795634962461
629.871191135734,117.905576177282,4.97152718836556,-1.04010808235574,-0.294344322328771,-0.403068556005544,-1.07587719010715,0.123731287159778,-1.00063833836265
630.872576177285,118,4.76482629501387,-1.01445489196086,0.18038757781574,-0.0425398405490076,-0.871605017731519,-0.446437453813831,-0.500265457136542
631.873961218836,118,5.06111249307458,-1.07937601416102,0.0597235309936957,-0.339481012614811,-0.890340294841935,-0.134277278440461,-0.381123353850343
632.875346260388,118,5.0986942036011,-0.882076560832555,0.0414353497966669,-0.433803091841315,-0.777951133406835,-0.0514768515679452,-0.198571591135698
633.876731301939,118,5.08919606648199,-0.819818113131204,0.235139531948795,-0.410789829432619,-0.923981860043576,0.151362620479514,-0.27035726777289
634.87811634349,118,4.99487441828258,-0.936213674781224,0.131675708284391,-0.23635451847806,-0.812975132641251,0.452408008540471,-0.0613350423037366
635.87950138504,117.086113573412,5.28618318559531,-1.01154553824072,0.136623097824339,-0.17400107514703,-1.0689993831685,0.224509142966112,-0.259441003105897
636.880886426593,117.91527146814,4.95298309556763,-1.41528225423379,0.151149191330403,-0.17581897180433,-1.12467495530615,0.263334775177529,-0.127286090818661
637.882271468144,118,4.5281304709141,-1.64041697335365,0.225756310645056,-0.140910176850241,-1.37673501002667,0.217221662512199,-0.342871441494573
638.883656509694,118,4.9749508448751,-1.97649983753829,0.884698360147308,-0.347965925225017,-1.61733291126761,0.665595187516019,0.104256740215291
639.885041551247,118.919426592794,5.29042271468169,-1.97742956043161,1.06706487337989,-0.571191608898169,-1.40301991482078,0.451367148152175,0.0724242609438823
640.886426592798,119,5.57399993767324,-1.15747087002703,-0.197147237743888,-0.325562641867101,-1.97200821976992,-0.492177777830271,-0.498960224755178
641.887811634349,119.922196675896,5.06525401662057,-1.20565063377329,-1.08943914672849,-0.241492484787934,-1.96600659279479,-0.352341861502598,-0.671077570642078
642.889196675899,120,4.97643252770085,-0.0187234844672996,1.02001912572882,-0.335633746594141,-1.59690625018764,-0.826019531854637,-0.688325569768605
643.890581717452,120.924966758999,4.95229414127422,-0.45774488739545,0.496832927700662,-0.359041822299292,-0.806908116830961,-0.811631951964792,-0.360626819804092
644.891966759003,121,5.44376714681452,-1.04431184529924,0.487364228853814,-0.104781323813826,-0.273830983151535,-1.02896812592714,-0.396349111845317
645.893351800553,121,5.53250894736841,-1.96206979756075,0.0982973951411989,-0.122773654649516,-1.97051132965184,-0.667271290916989,-0.675900149582022
646.894736842104,121,5.56581501385039,-1.98393,-0.756613443349717,-0.0406815957208594,0.0714779922828186,-0.351328082030478,-0.100127808869252
647.896121883657,121.930506925204,5.48165537396117,-1.98289,-1.54997944290967,-0.154910275996148,-0.327483709183373,0.113544254497687,-0.0704788460335374
648.897506925207,122,5.36409308171745,-1.65896916503109,-2.15701075979428,0.227248377128582,-1.87218404995921,1.17569837177011,-0.115406047621451
649.898891966758,122,5.24427235457069,-1.8042082340633,-2.158,0.56061672215285,-1.18459915114447,0.38037992352188,0.166622832692369
650.900277008311,122,4.88351400276975,-1.28640380656175,-0.115684848477567,0.998063451978151,-1.12936191688722,-0.729633027684739,-0.345673637120672
651.901662049861,122,4.75589224376728,-1.63969972799328,-0.0789123788286825,-0.0125347096473445,-1.76961857633253,0.881318306496847,-0.0448387604183674
652.903047091412,122,4.65655985457065,-0.999540899823653,-0.668234287078691,-0.334471669904082,-0.240923154860976,-1.7987383129528,-1.56017716496002
653.904432132963,122,4.67847562326868,-1.00557821606371,-0.314750221615035,-0.343493218842543,-1.03841824724446,0.0165732684546891,-1.28410972299807
654.905817174516,122,4.76239934903053,-1.05146048097933,0.0618700669144083,-0.308585468395112,-0.93348604055785,-0.458127266641229,-0.423696376156493
655.907202216066,122,4.85270905817176,-0.961288368171462,0.0759766666356136,-0.355111729362886,-0.974960553859587,-0.693199857960355,-0.485303298130211
656.908587257617,122,4.94314914819942,-0.900190612808312,0.0444403629439897,-0.31158886891538,-0.80993351365331,-0.0438413525514817,-0.195041783142049
657.909972299168,122.944357340715,4.85463966759012,-0.943171961218615,0.178664378680535,-0.152912621422369,-1.06881734816464,0.131183474608921,-0.199472369269209
658.91135734072,123,4.87217292137227,-0.94514442557963,-0.0652747471850505,-0.232128431058611,-0.960952264012521,0.463122346586695,0.0261204644442754
659.912742382271,123,4.90172148305988,-1.26973622642637,0.0137902242551865,-0.400522741828554,-0.82173325887568,0.683231349710995,-0.0369581040611577
660.914127423822,123,4.93127004474748,-1.47027032804625,0.104885505327354,-0.146879559254391,-1.1179287529555,0.230652468852258,-0.176467080140521
661.915512465374,123,4.96081860643514,-1.79072315183053,0.211283296400583,-0.335060242745083,-1.42381515235286,0.3979774741406,-0.387485392657432
662.916897506925,123,4.99036716812275,-1.95607603878276,0.46846057618945,-0.450807124655898,-1.55662848041487,0.612828426588076,-0.268153205671462
663.918282548476,123,5.01991572981035,-1.9772781752075,1.15880133316984,-0.736533834832891,-1.61363529089645,0.620570931904411,0.0685436382984443
664.919667590027,123,5.04946429149796,-1.20362964912272,0.270814772068094,-0.675782087726883,-1.73179973642855,-0.525152631730256,-0.685233920919071
665.921052631579,123,5.07901285318562,-1.42177238623247,-1.51549293985956,-0.11830108784776,-1.76933214573381,-0.514578626034039,-0.657719615815963
666.92243767313,123,5.10856141487322,-0.232412388050788,0.704512567801219,-0.282497185697504,-1.63079641796718,-0.740010887786051,-0.669246240180652
667.923822714681,123,5.13810997656083,-0.530861107652498,0.47880265254702,-0.320054783653649,-1.13748439259303,-0.843062842643025,-0.361967791329217
668.925207756231,123,5.16765853824843,-1.0329371270452,0.460801721898165,-0.135776988108576,-0.946051432614582,-0.875318637233834,-0.319678429707212
669.926592797784,123,5.19720709993609,-1.01576290132828,0.44112661190157,-0.17645022017355,-0.171699085280736,-0.89562630857002,-0.350073973282535
670.927977839335,123.962362880882,5.22675566162369,-1.98423880650683,-0.651135676585482,0.0125489555657878,0.171434655563254,-0.39047642819935,0.00843543706216706
671.929362880885,124,5.24446725761772,-1.98426574330553,-1.03729386603494,0.0340578524392798,0.117941299785286,-0.426497792581966,-0.0657355843159824
672.930747922438,124,5.40774190443227,-1.98186,-1.71125681440847,0.046509991691936,-0.568572388425743,0.162839414322164,0.00531302863615959
673.932132963989,124,5.58189778393357,-1.85272177949431,-2.15924667091407,0.636661068376358,-1.492082157648,0.951048499879396,0.339502686475736
674.93351800554,123.032096952913,4.95532322714695,-1.9518385545342,-0.914476930821045,-0.437743143477528,-0.776731193781652,-0.213240117076208,-0.127008470922685
675.93490304709,123,5.01500523545699,-1.81570139389198,1.6825311858686,-0.662892404686798,-1.41742441412534,-0.529847010417556,-0.126994434868384
676.936288088643,123,5.12635925207763,-1.73455298331362,-0.582412458456945,-0.0491882940022698,-2.00134125908654,0.378991816585698,0.212344800013492
677.937673130194,123,5.15686036011081,-0.994764906369157,-0.648173523658999,-0.330583686425072,-1.78893048254551,1.24456762406521,-0.156592476436536
678.939058171744,123,4.9433247437674,-1.19626416755906,-0.705537423525665,-0.395539567406608,-0.758281839551743,-0.619307165303043,-1.01919662050167
679.940443213295,123,4.71432300554037,-1.18682400275397,-0.173953226138759,-0.18324952151262,-1.07070123730937,-0.213673959338097,-0.463856306557289
680.941828254848,123,4.59267308864261,-1.0396828443157,0.177654160548284,-0.120201067295064,-1.16285185952143,0.0577045029224024,-0.738973262927606
681.943213296398,123,4.50073941828255,-1.05327782085283,-0.0669662518250231,-0.252140136765486,-0.945708836287977,-0.311422872573288,-0.494571659554678
682.944598337949,122.021016620503,4.80884576869788,-0.969915243896403,-0.0366611375212368,-0.215270865576854,-0.681369547848776,0.148305215404387,-0.20347677691161
683.945983379502,122,5.14029921052657,-0.998209967139909,-0.150798,-0.396982059206214,-0.813886945945708,-0.084712936415487,-0.283551466573099
684.947368421052,122,5.09447609418281,-0.918554347999816,0.119824626966497,-0.0796571462214782,-0.98814955900463,0.397470974135171,-0.266734104306676
685.948753462603,122,3.79602121883688,-1.02432068963186,-0.00752416464103956,-0.0741231687541951,-0.921059065692139,0.245582553218709,-0.201227636789753
686.950138504154,121.015476454299,4.04876625346236,-1.26836147736989,-0.0978799921666683,-0.308641350353716,-1.10646066481936,0.101761761966709,-0.297317334790204
687.951523545707,121,4.38627807479244,-1.40963199599397,-0.0842093453459679,-0.369243315338735,-1.09667827182346,0.192240969797677,-0.349180120717781
688.952908587257,121,4.53267828254849,-1.53322106186416,0.156967306402761,-0.196926810870553,-1.06842175900256,0.10713418313378,-0.185344827736364
689.954293628808,121,4.64966926592793,-1.91792358348689,0.0815174947049345,-0.365700718209327,-1.52012481994047,0.413091773515802,-0.45506925219208
690.955678670359,121,4.76570475761762,-1.97579821791299,0.979006975188542,-0.492647394240948,-1.74430398100689,0.64905507952853,0.189922705586521
691.957063711911,121,5.54155074792277,-1.97596726569714,1.23809218230603,-0.941190761888264,-1.32805697215277,0.100816989383767,-0.215754412373034
692.958448753462,121.99283379501,5.18290668975073,-1.20483846492003,-0.853177125961888,-1.00380116817549,-1.68227191387523,0.882470030723207,0.203661382271339
693.959833795013,122,4.77387094182849,-0.452266718215653,1.23552587337223,-0.761396915099181,-1.7901933127811,-0.936801784438321,-0.728835157522686
694.961218836565,121.004396121887,4.5380461357339,0.0163567574091797,0.770426510910663,-0.269768349518386,-1.51549955680609,-0.816329657897268,-0.630009241020507
695.962603878116,121,4.30919961218831,-0.476455260504557,0.607911536779127,-0.401928183333815,-1.63226078861121,-0.828756293819443,-0.853533369869828
696.963988919667,120.001626038786,4.29466610803324,-0.87597368697196,0.51349161772577,-0.11096295844971,-0.361339342861262,-0.871435176101088,-0.369287653476382
697.965373961218,120,4.34513200831021,-1.92271100575815,0.144790712334613,0.098304614148575,0.109341771889577,-0.625768044837255,-0.266571616318378
698.96675900277,120,4.39763963296402,-1.98547881809789,-0.852168591868131,-0.0680690951102531,-0.186127447322108,-0.157243298848877,0.0319669300663307
699.968144044321,120,5.66540833795022,-1.9831559791175,-1.87928454707565,-0.130656395700548,0.186513181816625,-0.579555420675022,-0.227030044826558
700.969529085872,120,5.23280658587279,-1.77822240756349,-2.158,0.309980391304079,0.0607499604544242,-0.391709530576676,0.0586962816875631
701.970914127422,119.99470083103,4.74558770083148,-1.89360501458178,-1.36787861226182,-0.473085157519049,-1.83573806346526,1.17656155125089,-0.117533190388481
702.972299168975,119,5.57815394736875,-1.75448549705953,1.60871362576825,-0.672825964776369,-1.52295908582333,1.00063292240444,0.266775448795765
703.973684210526,119,6.44826742382261,-1.94898746340004,-0.0909275722284867,0.3148853137856,-1.54999287535674,-0.149686971159344,-0.0203738478156291
704.975069252077,119,5.22751396814483,-1.1596962226574,-0.250686708954153,-0.231420927761017,-1.77759127421598,-0.177518682101135,0.158246787469554
705.976454293629,119,3.95337667589938,-1.05855294430681,-0.677557436112616,-0.430282763994165,-0.342578368315532,-1.50335722110552,-1.17282150580898
706.97783933518,118.987775623273,3.71345210526311,-1.22567082380044,-0.122230926891155,-0.278994248465721,0.222759669652151,-1.94183115262744,-1.11732601433998
707.979224376731,118,3.95546559556779,-1.13551803462584,0.236238098904249,-0.308192505917844,-0.991094356950216,-0.484824641104993,-0.375707455872199
708.980609418281,118,4.20719376731282,-1.04719459165347,-0.0250310468817741,-0.293856357821444,-0.848214623383616,-0.138555509033952,-0.363954243228601
709.981994459834,118,5.62068648199522,-0.999998655257375,0.0611552940053634,-0.349761858218984,-0.795784573408475,-0.151841620497515,-0.209026277019099
710.983379501385,118,5.48594306094182,-0.914947958771249,0.299735733857089,-0.20565286810767,-0.83193460644946,-0.0401327692944202,-0.21933605777926
711.984764542935,118.019149584483,5.4931591966759,-0.925892858726754,0.142962337519931,-0.242365504456591,-0.838073124282309,-0.0994139695460414,-0.215582742517319
712.986149584488,119,5.50297777700832,-1.07767173790311,-0.200010140200296,-0.185120044320821,-1.16148314734748,0.0812375266880552,-0.348202827595492
713.987534626039,119.021919667586,5.22507512465364,-1.39468282548853,0.22144229086497,-0.354976759003594,-1.11527326204953,0.211653922603189,-0.264604004929111
714.988919667589,120.023304709137,5.3233721537396,-1.37119402659328,-0.0527269134641237,-0.280167313128495,-1.37441492082736,0.15342606594144,-0.239352768501881
715.99030470914,121.024689750688,5.4259189889196,-1.58948396373537,0.222391936535659,-0.0995393499377754,-1.5155531906251,0.481594337234082,-0.222985211456942
716.991689750693,122,4.99302472299139,-1.97718675900284,1.32975279087257,-0.685778374286815,-1.46080956074546,0.330397917098568,-0.306941702017743
717.993074792244,122.027459833791,5.34167083102499,-1.943316819153,1.15423751800798,-0.860787585438719,-1.30161513908783,-0.213308495282233,-0.688966771020257
718.994459833794,123.028844875342,5.69579062326858,-0.752919026783407,0.859407112924338,-0.663360838699929,-1.85941413666952,-0.961917630033235,-0.731262598037216
719.995844875345,124,5.10467606648248,-0.309071328237087,1.05788027420117,-0.519512868409809,-1.01247442969708,-0.94883425274195,-0.67240574284832
