Time,ZephyrHR,COSMED,ANKLE_AccX,ANKLE_AccY,ANKLE_AccZ,THIGH_AccX,THIGH_AccY,THIGH_AccZ
0,94.1376320109466,2.84340383720941,-1.16207608070796,-0.10967188289831,-0.264065482714641,-1.09006497948085,0.463649824895586,-0.0385375497960746
1.00136798905623,92.2725280437808,3.58553267441882,-1.00698605221143,-0.103223855562579,-0.620435872082541,-1.04429909849534,-0.00437534999355928,-0.110777205211518
2.00273597811247,91.1348960328341,4.32364030095749,-1.06236412721864,-0.295792230510809,-0.283193777705756,-0.88748930507742,-0.337473895559675,-0.262952083442482
3.0041039671687,90.1335280437779,4.08459373460998,-1.19074208844499,-1.46466635203453,-0.665605720979455,-0.920214895688319,0.749500700738552,0.208956712244159
4.00547195622494,90,3.84554716826248,-0.741721930722624,0.00576835248630967,-0.140787077977563,-0.872864628250581,-0.422440660906429,-0.17343145728192
5.00683994528117,89.1307920656654,3.60836265389876,-1.3470402599047,0.143992782465131,-0.534421573179896,-1.44928752849556,-0.304707013891874,-0.424240207909267
6.00820793433559,89,3.59648642954857,-1.09816772742882,-0.0283264270336039,-0.203655790865288,-0.984109952118637,0.34418027199651,-0.0644613971726797
7.00957592339182,89,3.58226196990439,-0.991567631330312,-0.0460665049523192,-0.336972212352249,-0.9653699270404,0.0673442254452368,-0.138290713632994
8.01094391244806,89,3.35552221614238,-0.95701797373638,-0.489036178943827,-0.225102254988727,-0.961484197018096,-0.558549723637506,-0.420178299608526
9.01231190150429,89,3.13415510259912,-1.14176742648607,-1.67461349179594,-0.4328783512383,-1.05245321477787,0.882442106717153,0.11264922981588
10.0136798905605,89,3.30069261285906,-0.702803885089779,-0.0633863403563289,-0.0880399804833286,-0.853510838581322,-0.514895844387818,-0.125496540557501
11.0150478796168,88.1225841313299,3.46306038303694,-1.24147879611393,-0.21130603006639,-0.291444090240665,-1.34263783860175,-0.180377052052967,-0.552285232614969
12.016415868673,88,3.37524374829001,-0.979498931602314,-0.153346098506613,-0.310393380303504,-1.00067310761722,0.34740812448977,0.030844877522572
13.0177838577292,88,3.28742711354307,-0.960802611494056,-0.106503637335317,-0.293904642941841,-0.955332573187773,0.0909113118310328,-0.174545595693482
14.0191518467855,88.8815198358388,3.20043233242132,-1.06549518467969,-0.321771849083951,-0.200301549984538,-1.16507234610006,-0.338985886189684,-0.230774954242891
15.0205198358417,89,3.15272215458274,-1.09576754992587,-1.77581651162606,-0.671487584121479,-0.998336304372772,0.581562422752497,0.227226
16.0218878248979,89,3.11066465116292,-0.695048648584588,0.00108519335687018,-0.23667849690489,-0.815931662768372,-0.597779875966292,-0.190846458900031
17.0232558139542,89.8856238030075,3.30635198358429,-1.61306346100432,-0.0994156758267618,-0.557760316002184,-1.35387255814754,-0.133418629246346,-0.205204995222883
18.0246238030086,90,3.5019058048334,-1.00785494528378,-0.0785632337174923,-0.457885380292794,-0.939962760829961,0.350698345995415,-0.109630815291114
19.0259917920648,90,3.69244944368432,-1.08196651709297,-0.0743452820743151,-0.518639748271421,-1.08103325776784,-0.0335542859811703,-0.296945296620142
20.027359781121,90,3.88299308253523,-0.893577893290125,-0.423316112176825,-0.461530846100327,-0.848284125868608,-0.699978012297703,-0.306110443223165
21.0287277701773,90,4.06004995896043,-1.43869604102648,-1.19068488031438,-1.28727416143352,-0.751603089265704,0.37744741792525,0.165005630644653
22.0300957592335,90,3.80185222982223,-0.624718990197667,0.109037657317082,-0.046404096672585,-0.932978132011227,-0.348725759920314,-0.143894021886804
23.0314637482898,89.1061682626569,3.56780487004098,-1.6976969411758,0.551681708123437,-0.550979746383966,-1.35890427875962,-0.207112067596956,-0.0881745179683257
24.032831737346,89,4.04619340629277,-1.02743234062896,-0.229608727768067,-0.274466243280069,-0.925683218422886,0.250839103696626,-0.0955184082060501
25.0341997264022,89,4.48848355677145,-1.10996322024601,-0.0897702962609734,-0.486767578392907,-1.0932171682614,-0.0178893637484405,-0.0856288767440577
26.0355677154585,89.8979357045118,3.95056369357028,-1.00496658094945,-0.42233862918059,-0.0840815381472493,-0.997430053350563,-0.699137228459895,-0.199043290289224
27.0369357045147,90,3.43823433652537,-1.49803644322897,-1.33299577291287,-0.590343564979379,-0.845721616962792,0.533557713193672,0.467090782021511
28.0383036935709,90.9006716826243,3.56932341997272,-0.560479479820589,0.0742243056780959,-0.144941507866769,-0.940863704514302,-0.397949350660126,-0.157674299817048
29.0396716826272,91.9020396716805,3.69981640218887,-1.73458480506325,0.175540707262325,-0.831903608068382,-1.32811913816652,0.611000052441251,0.548475136341594
30.0410396716816,92,3.81636061559497,-0.999095129947843,-0.226197866269609,-0.360290358462344,-1.00515956223913,-0.033789648706361,-0.0232467038593674
31.0424076607378,92.9047756497912,3.91727626539006,-1.05659709793787,-0.200277808328976,-0.20614544099392,-1.09117248063716,-0.0286430321792201,-0.417079074511453
32.043775649794,93,3.67631708618346,-1.25793746165061,0.172607337775041,-0.314047549484615,-1.25365831993804,0.25245894867675,0.525495211492161
33.0451436388503,93,3.45440069767434,-1.80891083721338,-0.495654144146905,-0.60306912557566,-0.662994102321258,-0.0433404418227317,0.0356262068956799
34.0465116279065,93,3.62342160054714,-0.434608308743847,0.181024413138265,-0.124036023904741,-0.872364452256632,-0.308900387688207,-0.10014920458179
35.0478796169627,92.0897523939839,3.79040644322843,-1.81480696305171,0.699315830004797,-0.219511765685365,-1.34933375512724,0.648070760242107,0.335702146007729
36.049247606019,92,3.91802745554035,-1.042175188768,-0.172166872883602,-0.218590240833609,-0.91571386002694,-0.0533826471748414,-0.092933633807058
37.0506155950752,92,4.04564846785227,-1.03635392975203,-0.224082066280574,-0.440437142826727,-1.06465994529599,-0.213327065381916,-0.269249809040165
38.0519835841314,92,4.1555542681258,-0.928240736747207,-1.39645463752808,-0.62519974534787,-1.0128937668941,0.184448670316973,0.252752739415669
39.0533515731877,92.9157195622411,3.95067437756489,-1.40089181119526,-0.0677509750485144,-0.095901666578691,-0.755382557589415,-0.508998898212954,-0.0512582711058026
40.0547195622439,93,3.77535879616981,-0.890269500177858,-0.312995463705938,-1.09856767015658,-1.51007131463324,-0.293546312663212,-0.175731881791195
41.0560875513002,93,4.09830998632034,-1.30441682536425,-0.133783738393406,-0.283100149104673,-1.05927191927763,0.410333008612264,-0.159858661767708
42.0574555403564,92.0801764705902,4.39379529411752,-0.918726250977756,-0.0739970572530252,-0.531317423523327,-1.0043625176386,0.078372929409705,-0.0828466117618584
43.0588235294108,92,4.24918774281818,-1.17700459236016,-0.109180884017046,-0.357368090363171,-1.32740981940685,-0.370162745848613,-0.187530468593314
44.060191518467,92,4.10829500000006,-1.27415655541767,0.988045871541805,0.204051355977774,-0.746663783043087,0.251658176051266,0.135635760343367
45.0615595075233,92,4.02411500000004,-1.47795891793686,-0.0830729650670744,-0.07733002770346,-0.521278441498903,-0.5143267252283,-0.140575802305144
46.0629274965795,91.0747045143671,3.9396018422253,-0.296722049065716,0.109170602068841,-0.111167887829753,-1.25139759071225,-0.639601648050529,0.0911448197248455
47.0642954856357,91,3.85023308709532,-1.52630940355564,0.0690220276320524,-0.543960879620069,-1.27394382538529,0.480863083292209,0.539828358882455
48.065663474692,91,3.76086433196535,-1.04478084176895,-0.170597508800911,-0.181765024260481,-1.01464349767256,-0.0507478335430535,-0.0852468601903486
49.0670314637482,91,3.69297482900138,-1.06915767989038,-0.190883556225496,-0.222003804834962,-1.17752985772782,-0.208796758666263,-0.213171058885391
50.0683994528044,91,3.91806232558144,-1.15463504651542,-1.3959615581369,-0.767598627903043,-1.01660902790174,0.62174318916151,0.14240543754155
51.0697674418607,91.9321354309141,4.1431498221615,-0.446638034885585,0.0463394121885243,-0.130150598224511,-0.854790763332818,-0.386889692208465,-0.258124187124729
52.0711354309169,92,4.36823731874156,-1.62266858603892,0.0294904266840251,-0.330106479562958,-1.24120453898698,0.423149487279901,0.363870808866898
53.0725034199731,92,4.51440946648372,-0.953935941109954,-0.0761194400651173,-0.393456750069602,-0.935703438304595,0.144224196250557,-0.0771848629565905
54.0738714090294,92,3.66975556771478,-1.02520714493845,-0.265025106443317,-0.40860518002669,-0.994857510539332,-0.456768964289466,-0.431178415572029
55.0752393980838,92,2.89424098495207,-1.4846997701852,-1.39011114363203,-0.781874687012252,-0.95568565792836,0.566294215861584,0.316535003944567
56.07660738714,92,2.95333671682622,-0.356357276599726,0.17114592996344,-0.102770551028082,-0.924390389878169,-0.307293258835818,-0.0721586857095479
57.0779753761963,92.9403433652496,3.01853435020512,-1.67733529955392,0.0627189503049897,-0.2873112753146,-1.25209722433216,0.608169792838892,0.0962820810692906
58.0793433652525,93,3.15464028727764,-0.995432393069042,-0.163112289722343,-0.401737052893188,-0.956743788145632,0.138046244592763,-0.207225036307054
59.0807113543087,93,3.28176264021887,-1.15463180364597,-0.329657238676196,-0.384157148536369,-1.10144911976402,-0.545450688373638,-0.192894316264687
60.082079343365,93,3.30826885088919,-1.80566556154834,-0.348700018627219,-0.846225463365785,-0.708337771423611,-0.494637964897775,-0.0665306799615657
61.0834473324212,92.0541846785254,3.33477506155951,-0.81370659344926,-0.238524235813422,-0.657106076123214,-1.34831440673839,-0.56683714356829,-0.0697098671098961
62.0848153214774,92,3.39809059507531,-1.21098419233967,-0.106349842076602,-0.243695342739996,-1.04522203712517,0.37342748896587,-0.102896586444221
63.0861833105337,91.0514487004129,3.85228608071149,-1.0044897514092,-0.0929153133316654,-0.263533568593261,-0.982637890561293,-0.0695201776214863,-0.202441512170313
64.0875512995899,91.9499192886433,4.28203231874153,-1.33531880434951,0.433101110174341,0.0713058753090788,-1.1476515263477,0.434523281282611,0.277091826639466
65.0889192886461,91.0487127223005,4.46089166210681,-1.34231486594978,-0.128815882279564,-0.137270822457388,-0.639891415834327,-0.599653605482543,-0.139563346069049
66.0902872777024,91,4.60938149110796,-1.2913042004078,-0.174085098362745,-0.775632035149715,-1.48202650345751,-0.577746317449005,-0.184719227792204
67.0916552667586,91,4.4564425581394,-1.06746266667838,-0.0552689210897925,-0.219501137038031,-0.982250151163025,0.222069630235048,-0.0638308997666244
68.093023255813,90.0446087551336,4.32368447332416,-1.01287471654474,-0.0705203072694811,-0.628647398706187,-1.01485374651401,-0.11430620546601,-0.223598824757965
69.0943912448693,89.0432407660774,4.38483801641583,-1.20340580643228,1.29394690263917,0.272750097099128,-1.26928912313026,0.249240494402768,0.41853114653032
70.0957592339255,89,4.40443859097145,-1.29982436526379,-0.246600796860806,-0.347031220436612,-0.689530323757256,-0.331224482075719,-0.11968576607318
71.0971272229817,88.0405047879649,4.03718688098508,-1.39615377671341,-0.30360880557649,-0.629201106448743,-1.26168145827161,-0.0975765562720422,-0.064671488708183
72.098495212038,87.0391367989087,3.71158311901504,-1.11812504696676,-0.102043619767453,-0.228028466747149,-1.05877464049276,0.1275915865101,-0.105780220833081
73.0998632010942,87,3.76195192886457,-1.04051372092778,-0.188248144455188,-0.271409192624782,-1.04664524589083,-0.043779181620751,-0.525303750114124
74.1012311901504,87,3.78442915184676,-1.34356217785692,-0.697438763583489,-0.104931337049381,-0.919885293410656,0.702543065554388,0.154422039878326
75.1025991792067,87,3.56257607387135,-0.85683095404926,-0.0301079728331357,-0.234034823793811,-0.781779968803957,-0.592381056496826,-0.109502592473735
76.1039671682629,87.9663351573163,3.40227348837223,-1.61345839124975,0.335182462933721,-0.469762752948147,-1.18019774554894,0.572229070585075,0.206751186044647
77.1053351573191,88,3.76554976744206,-0.983345198359649,-0.131729153076943,-0.311445767988988,-0.960354532968667,0.00307346117215045,-0.104116462869054
78.1067031463754,88,4.09458262653902,-1.06413203009586,0.0536232926580504,-0.331845873142992,-1.0259842993149,0.134044102871759,-0.151246268536733
79.1080711354316,88,4.14056544459648,-0.994122530220273,-1.54158388782854,-0.63021210676356,-0.961997767167373,0.98457893166508,0.21181800821208
80.109439124486,88,4.12051331737392,-0.511952996080782,0.0364019472237556,-0.168053773085037,-0.897593057948221,-0.478803923227271,-0.101468095968376
81.1108071135423,88,3.56973588919327,-1.73557632558663,0.596241452318026,-0.283948694368298,-1.24005054857181,0.521321110272692,0.614946302165639
82.1121751025985,88,3.07272698130419,-1.01954830341998,-0.170722408397753,-0.619035827742502,-0.988702764432131,0.00266551068445425,-0.0343327211749587
83.1135430916547,87.0240889192919,2.99614903328776,-1.07381994163397,-0.0372886818253463,-0.164025705158507,-1.0582513406276,0.0930848820798943,-0.155370080439558
84.114911080711,87,2.91957108527134,-0.99587298605003,-1.33069102325251,-0.616552159704911,-0.931359993796297,0.73927334109211,0.177733021709934
85.1162790697672,86.0213529411794,2.92036941176464,-0.429463647029236,0.158124331798243,-0.0448593376516993,-0.943446303524729,-0.432400437640787,-0.175986285409272
86.1176470588234,86,3.50238952120385,-1.68732405198509,0.21812831080903,-0.301110003281564,-1.27763384405086,0.644570261576761,0.232955940422025
87.1190150478797,85.018616963067,3.99815578659368,-1.04674233653832,-0.136193522616271,-0.247193318718526,-0.997443351903647,0.067628700002253,-0.0965602933363857
88.1203830369359,85,3.86270073871405,-1.05744045929575,-0.321554046086386,-0.238301102362923,-1.04796942663216,-0.337029766689409,-0.148104076132952
89.1217510259921,85.9841190150455,3.77076456908355,-1.4591662407905,-1.22607284813006,-0.473419480969898,-0.892344154579984,0.385013306964398,0.258524978371338
90.1231190150484,86,3.98926306429562,-0.331994317054266,0.219841669493915,-0.0833630084821028,-1.0577076804509,-0.563691104804429,-0.0386400302600302
91.1244870041046,86.986854993158,4.1403655813951,-1.34356846056078,-0.146121189810614,-0.379266249995217,-1.15638538850807,0.311084674693874,-0.162118740768049
92.125854993159,87,3.82262651162819,-0.98029950519689,-0.124540188456727,-0.591947048687166,-0.952897467123568,0.144551685552188,-0.0242542803825289
93.1272229822152,87,3.52761225262208,-1.39948381396274,0.439082598327459,0.192695441437594,-1.13258292294252,0.37233890651065,0.265608360523069
94.1285909712715,87.9909589603249,3.38683660282726,-1.37120584014474,-0.0669168823244817,-0.0169851523081368,-0.640781058090699,-0.645817333155125,-0.311586309432823
95.1299589603277,88,3.24606095303244,-1.16526332129551,-0.42370666933577,-0.492756602429934,-1.35077696854009,-0.371825982752995,-0.15434783980787
96.1313269493839,88,3.14708266073866,-1.13819773188016,-0.125763881090951,-0.363185821885435,-1.03083788180599,0.127414094473008,-0.0478219410832814
97.1326949384402,88,3.32172624487001,-1.03825375923384,-0.229173445769144,-0.265983497680167,-1.03252786476564,0.0899419536457941,-0.218807218647547
98.1340629274964,88,3.51248204514363,-1.34675880343423,-0.004606345691203,-0.104876297339157,-1.04193484697214,0.544996344546241,-0.0658647373353056
99.1354309165527,88,3.80625837893301,-1.15752778547158,-0.053182986361956,-0.10222900133499,-0.814837797950053,-0.477937418193867,-0.209837237570389
100.136798905609,88,4.08157561559512,-1.73656924304792,0.278521407898204,-1.06659798780838,-1.3284356908358,0.60189516763765,0.473569863294757
101.138166894665,89,4.24156918604658,-0.991541604656209,-0.156710348832964,-0.447558011602323,-0.950927601395014,-0.0281178679541272,-0.147194748370851
102.139534883721,89,4.36293587779291,-1.00004778905337,-0.125834242971161,-0.95188711397618,-1.04951416415682,0.019422604948139,-0.250683823523616
103.140902872778,89.003270861831,4.24841609667114,-1.102078881904,-0.866882395803814,-0.324583594084578,-0.87327849220317,0.584635978037889,0.12699097381517
104.142270861834,90,4.13389631554938,-0.353035208485338,0.154464677556605,-0.184781159442447,-0.948215447881478,-0.378105085459773,-0.16791110675755
105.143638850888,90.0060068399416,3.99578658002758,-1.31303790287225,-0.208750403830354,-0.319181354582838,-1.12761818741426,0.317586840013609,-0.0549085234138012
106.145006839944,91,3.7183625854995,-1.03718035020476,-0.0546666194757501,-0.354076942817039,-0.956737808617572,0.053133180417761,-0.0185514440278927
107.146374829001,91,3.47662882352943,-1.28910766600146,-0.261899448883734,-0.336949426958695,-1.08752295006882,0.317696588540704,0.395563914477728
108.147742818057,91,3.44110529411766,-1.69643241402242,-0.262921416247535,-0.368945903713756,-0.660856536661618,-0.171090541918583,-0.0646275482113717
109.149110807113,91,3.44402608755125,-0.748048635801575,-0.789430261851786,-0.412783418632497,-1.40259893935775,-0.351533552287469,-0.21255747734548
110.150478796169,90.9871532147772,3.66433205198357,-1.09727226402877,-0.149974336114263,-0.284385912832101,-1.02556491244826,0.203800377710827,-0.0913953893593612
111.151846785226,90.014214774279,3.91813306429552,-1.01518581304144,-0.0731600300581601,-0.462458608061112,-0.980147672091646,0.0944130669640513,-0.190192486593969
112.153214774282,91,4.35735309165536,-0.940544976014805,-1.72742754219031,-0.222674970355456,-0.929531727194278,0.788874329938557,0.176748816714934
113.154582763338,91,4.69120603283165,-0.529666867794707,-0.022252703184643,-0.0752772888578329,-0.883498127852209,-0.397597401913337,-0.200330328519221
114.155950752394,91,4.45385845417225,-1.83621960327632,0.517748025435282,-0.188212821285831,-1.29632429776548,0.677187326399355,0.379646117375166
115.157318741451,91,4.21651087551284,-1.05968732138428,-0.151726110192223,-0.27455196370958,-0.940898519018032,0.197097124757149,-0.10688509323131
116.158686730507,90.9789452804398,3.98641030779738,-1.0241441984322,-0.0680478557838225,-0.771615970589203,-1.22214948107997,-0.163467073752042,-0.0499597485533699
117.160054719561,89.9775772913854,3.79440300273614,-0.961880846853039,-1.49512985226597,-0.408800566711816,-0.947445601643925,0.911908500702218,0.283176854691366
118.161422708617,88.9762093023292,3.63619837209301,-0.542574132058411,0.0366793878572759,-0.182232985046633,-0.89715512325327,-0.420233947675029,-0.123363402905356
119.162790697674,87.9748413132729,3.65212012311901,-1.86580008752753,0.694801062899879,-0.206728045983704,-1.34110895211521,0.538540823302242,0.0719917961444301
120.16415868673,86.9734733242167,3.64493517783863,-1.03250459931584,-0.177911793242127,-0.274719791683484,-0.976744999180628,0.105883010259475,-0.0350378395384132
121.165526675786,86,3.52107096443232,-1.04807807751838,-0.000807184889669884,-0.273354479188468,-1.13504068309242,-0.00570824219719538,-0.107779000151998
122.166894664842,86,3.42739054719561,-1.19797317664605,-1.61137729582622,-0.826943710731275,-1.01554225447344,0.522287120938126,0.144081383039756
123.168262653899,86,3.48315673050616,-0.476172249774476,0.166158961255303,-0.0748877808813425,-0.86599733426124,-0.389044117315423,-0.121735172019838
124.169630642955,86,3.51257886456907,-1.70481463292855,0.216584318251284,-0.54398546493402,-1.28993286457519,0.708709151205625,0.496380083728448
125.170998632011,85.9666333789355,3.41407429548561,-1.07502625069121,-0.117407285493843,-0.459951488881584,-0.977843452393885,0.162236738166782,-0.120404736251757
126.172366621067,85,3.33439126538988,-1.09883563419692,-0.0802669789312467,-0.264618954584725,-1.0683163474688,0.0582403924980873,-0.114685027416546
127.173734610124,85,3.34436989740083,-0.850378260464903,-1.66765849793408,-0.613309096025064,-0.837143658686569,0.67846979938433,0.160058955971382
128.17510259918,85,3.3550005882353,-0.732491947073831,-0.00849503883646846,-0.15751281175953,-0.822558302935324,-0.540798858824998,-0.0371545564739023
129.176470588236,85,3.36867927496581,-1.65807909850234,0.288025590741422,-0.464190936023894,-1.26263135612003,0.449985986603361,0.40965246578298
130.17783857729,84.9597934336562,3.36949272229827,-0.924620909399662,-0.210163465896804,-0.297172552962503,-0.934113124054148,0.0543707917902362,-0.0923806071737913
131.179206566347,84,3.31128320109443,-1.03935568414691,-0.00535490278396963,-0.640013308525879,-1.07121297088498,0.0533129204617506,-0.356085373451092
132.180574555403,84,3.25735782033745,-0.92379896860446,-1.77213306702577,-0.474545494319038,-0.945473180688578,0.819279998624261,0.225640510893104
133.181942544459,84,3.22272717738259,-0.558343886506086,0.0108930621520997,-0.205443286887377,-0.837654170518092,-0.482606644052955,-0.0607418082613361
134.183310533515,84.0456785225688,3.18809653442773,-1.74739205472101,0.513296379401437,-0.359351799451114,-1.25083703830453,0.813069192896491,0.168783117554337
135.184678522572,85,3.17820046511628,-0.953415751742257,-0.231632782553875,-0.33095826513475,-0.942070257366579,0.00660566433527815,-0.0787000206183958
136.186046511628,85,3.27670002735979,-1.04949103638678,-0.10216293354774,-0.160553749657336,-1.05638458105385,0.00199729613633798,-0.165197571406354
137.187414500684,85,3.40513010943919,-0.933494119532085,-1.71955641313146,-0.428844051978509,-0.861802650923313,0.733828959894924,0.206550396508369
138.18878248974,85,3.66239155950763,-0.553552950483152,0.0412653895191101,-0.166765354494617,-0.905238379480149,-0.506205174373038,-0.14442657972097
139.190150478797,85,3.87336299589604,-1.84793293981323,0.353763716283691,-0.125680754305434,-1.25330809233269,0.570724661008606,0.462678517585367
140.191518467853,85.0538864569062,3.88859380300959,-0.959103777732944,-0.20057012716286,-0.43078768438205,-0.93604115631625,0.0972569994324449,-0.199494058671966
141.192886456909,86,3.88985091655262,-1.0444775314652,-0.228649782555888,-0.232253594388507,-1.08941990228566,-0.302469028339483,-0.071101051656408
142.194254445963,86,3.83304831737351,-1.60182569218219,-1.48756900310055,-1.15824346917848,-0.996235799132004,0.633412390104406,0.354727764883299
143.19562243502,86,3.75462109439136,-0.562847566212517,0.104481567646266,-0.0122141983885984,-0.938540701942478,-0.304875334937714,-0.0900685135592446
144.196990424076,86.0593584131293,3.5878933242135,-1.52131140322072,-0.209755566072286,-0.240723411453095,-1.25690801641687,0.451449386687785,-0.0918909429779284
145.198358413132,87,3.43984196990427,-1.00348817702114,-0.141797782710214,-0.276919142250793,-0.983972647606118,0.0654942264842195,-0.0998415945276565
146.199726402188,87,3.36675212038306,-1.13657601811536,-0.15184676149979,-0.242351629565074,-1.13827198401902,-0.232810669878142,-0.289999092318237
147.201094391245,87,3.26359660738716,-0.979048488076708,-1.64200335152541,-0.475615963330112,-0.954190962712015,0.756536377350699,0.144922303788886
148.202462380301,87.0648303693542,3.0418036114911,-0.550229299797925,0.137153537169095,-0.00475301821818867,-0.94835676169631,-0.339844386867242,-0.0963494787368639
149.203830369357,88,2.92891451436394,-1.49082657865936,-0.0415709599042106,-0.351515057455572,-1.219548272223,0.563211098380918,0.148201719023422
150.205198358413,88,3.23857254445975,-1.00514771819554,-0.0852445559504569,-0.125603805142283,-0.984055527510633,0.0663185568172142,-0.105176647791858
151.20656634747,88,3.4616214181486,-1.4161522773635,-0.240263100709882,-0.633915624474169,-1.22101761696289,0.82320350702191,0.366315451801197
152.207934336526,88,3.35418798449606,-1.61628046511766,-0.520670818609843,-0.470747981385286,-0.653342869774316,0.0375654744569441,-0.0401751967377693
153.209302325582,88,3.24675455084351,-1.64945324898715,0.0351478979108307,-0.31116458810064,-1.21142132751246,-0.061825742572807,-0.24575184011263
154.210670314636,87.9269616963102,3.14265789329694,-1.02806545827548,-0.173904773188016,-0.263988942956456,-1.01874401504795,-0.0292871912697019,-0.0501887848833285
155.212038303693,87,3.05098265389884,-1.22442112312085,-0.339593717440882,-0.53948336175654,-1.03102774145204,-0.283428371667496,-0.412216821733045
156.213406292749,86.9242257181977,3.29752214090199,-1.58708828102454,-0.522145359846898,-1.52998655641639,-0.846371622771847,0.0874667148478913,0.0223927522959396
157.214774281805,86,4.78274613543025,-0.640786563022228,-0.334510515945005,-0.81106548081789,-1.33491234746929,-0.419294407707267,-0.121210738929164
158.216142270861,86,5.72433912448731,-1.05207404617072,-0.153451478234727,-0.567280914272031,-0.990548243384484,0.0454511189899587,-0.0385663148060998
159.217510259918,86,4.70680905608771,-1.07468249931674,-0.117569705173772,-0.144594881818688,-1.12323258003112,-0.0486045929319416,-0.135298283359808
160.218878248974,86,3.68927898768811,-1.04610296345426,-1.34094119562559,-0.506609958791248,-0.909209873047114,0.703921287849803,0.230869656710217
161.22024623803,86,3.00986722298229,-0.465663068951644,0.037500530270525,-0.166185145816228,-0.958453563680314,-0.357984688914373,-0.101257771976845
162.221614227086,86,3.52013097127237,-1.1403095834362,-0.204699680715661,-0.49379432053824,-1.1725387717184,0.170866818587656,-0.13330373254443
163.222982216143,86,4.03039471956246,-0.97266123195606,0.0381195893627811,-0.614007146592566,-0.958153141449942,0.113929844570987,-0.0514128710535175
164.224350205199,86,4.28539075239362,-1.35695423255902,-0.210499551564598,-0.3494598512067,-1.01285107621749,0.324622343021912,0.241060100746194
165.225718194255,86,3.66319409028683,-1.47516117466705,-0.162558996779553,-0.442656590418352,-0.765006457180931,-0.556237993059591,-0.13888928129299
166.227086183311,86,3.04099742818003,-0.816094137667417,-0.692911771651936,-0.576819965095297,-1.36541427772531,-0.348032059180761,-0.473421337667291
167.228454172366,86,2.54017367989064,-1.07954443433798,-0.274242873943875,-0.307454029544848,-0.966351683721572,0.0458769201870815,-0.0607846697660653
168.229822161422,86,2.44681614227092,-1.03520336894745,-0.153528163196443,-0.424133496067753,-1.12159365389997,-0.0534261550444854,-0.244238077426848
169.231190150478,86,2.40255317829451,-1.05354629764979,-1.33444800000517,-0.439681748881737,-0.928236276744835,0.8525235325588,0.171305488371476
170.232558139534,86,2.52059109895117,-0.650270500890884,-0.00928978932332818,-0.0598944501374931,-0.882638272229932,-0.536433718467781,-0.0613746944596324
171.233926128591,86,2.63862901960782,-1.58914919118052,0.301103605303464,-0.28414979704074,-1.21458764705631,0.548096190187164,0.622132333320308
172.235294117647,85.9023378932998,2.7549326578073,-0.994978414966295,-0.0878810381086545,-0.57203689135272,-0.965411056224339,0.0961729901741794,-0.254705284778102
173.236662106703,85,2.86563245847177,-1.18311052940486,-0.00413634163757906,-0.476158688632733,-0.841516935980438,-0.631518713275875,-0.266285354583921
174.238030095759,85,2.97633225913624,-1.64165018466463,-0.807682336650003,-1.10075373935988,-0.894721441395542,0.358720031474926,0.206254777695172
175.239398084816,85.1017660738689,3.08703205980071,-1.08347860907408,-0.477605113025542,-0.30749135423023,-1.41238058959589,-0.374672393724405,-0.179147089294172
176.240766073872,86,3.19773186046517,-1.14572325718079,-0.0544821304375571,-0.324254984129907,-1.06404273598607,0.43743550150326,-0.0379808254189747
177.242134062928,86,3.30843166112964,-1.06645270012882,-0.0530080087518979,-0.330155643493093,-1.03458089466607,-0.0332297181430089,-0.215287914512805
178.243502051984,86,3.41913146179411,-1.03808920823907,-1.44160987509664,-0.916039594798192,-0.891878656676037,0.54375613169759,0.0957807274450159
179.244870041039,86,3.52983126245838,-1.08232647469116,-0.0136898862089043,-0.0490438579614495,-0.721544038349851,-0.583226555540162,-0.150692350506462
180.246238030095,86,3.64053106312284,-1.69504237209642,0.620292436938229,-0.364533175099739,-1.33804146282712,0.825017148771368,0.442981299590805
181.247606019151,86,3.75123086378731,-0.972575577428522,-0.0765000619828058,-0.418274044729703,-0.986243177563542,-0.00664900313344527,-0.121998138227636
182.248974008207,86,3.86193066445178,-1.06419525171011,-0.0206746697174414,-0.188804202597165,-0.716415763341447,-0.710479407714754,-0.323846304952299
183.250341997264,85.887290013683,3.97263046511625,-1.20243027852668,-1.50741695292507,-0.561605060481592,-1.01344504240301,1.07896507575977,0.0857839517894655
184.25170998632,85,4.08333026578072,-0.436235505196372,0.164692466326568,-0.0159004931727957,-1.03609738987834,-0.411106639672661,-0.0951321959776763
185.253077975376,85,4.19403006644519,-1.38501798631834,-0.14523613340683,-0.69670604843004,-1.15458262448798,0.31390457421857,-0.166677238781677
186.254445964432,85,4.10945465116268,-1.06714182325419,-0.0229063462277663,-0.242548253954287,-0.982236241856279,0.0121236222351279,-0.0404503626955177
187.255813953489,85.1181819425419,3.45576162790677,-1.20465312996461,-0.155831478021614,-0.780330214107974,-0.980107825977632,-0.0423391649556529,0.0934299576138859
188.257181942545,86,3.13847179890591,-1.56999060327155,-0.173165145002539,-0.139364364438819,-0.629099260126183,-0.51898334384737,-0.170255779968975
189.258549931601,86,3.7876736867309,-1.52190343089103,0.0161279902026683,-0.506939472788998,-1.3795556698588,-0.461692309346039,-0.132844053478053
190.259917920657,86,4.18435188782466,-0.970969,-0.236341486192442,-0.0765128838656946,-0.940030197853282,0.0212265562383474,-0.209461220154526
191.261285909712,86,3.86576666210699,-1.07893478324944,-0.0268831898170712,-0.44808095425067,-1.05623331691662,-0.0221040911659595,-0.137524321020708
192.262653898768,86,3.54718143638875,-1.29600532056143,-0.727746714522467,-0.450869373927459,-0.960584416859677,0.391386764578305,0.033475203186663
193.264021887824,86,3.26994793433663,-0.814780834582893,-0.0542669153578914,-0.300165591163386,-0.859127724683833,-0.605611726951521,-0.0355985627193621
194.26538987688,86,3.10739086183318,-1.66810670040689,0.729793899896224,-0.330935669511625,-1.13693202735053,0.616256175084951,0.428656276038005
195.266757865937,86,2.99442634746921,-1.01856729844853,-0.00198811094345647,-0.637364704830146,-0.992873572915585,0.162182859701364,-0.142729231005534
196.268125854993,86,3.01708229822161,-1.0284626621255,-0.331619672487374,-0.311152874961714,-0.900300142180348,-0.435350081622676,-0.202163361969702
197.269493844049,86,3.05516247606019,-1.73261330888917,-1.5490331420119,-0.375437893232185,-0.928839182021479,0.318647658383366,0.148572013018891
198.270861833105,86,3.13484132694939,-0.338624744473873,0.186067051986969,-0.107621827291698,-1.03137410251279,-0.462679710449914,-0.0731418643462425
199.272229822162,86,3.26584439124494,-1.45831037345184,-0.13769643399685,-0.26945030744825,-1.21941288828238,0.326398765890551,-0.0902352079708868
200.273597811218,86,3.5333698632012,-1.00715267989047,-0.0621787870009796,-0.367573107609591,-0.996385307686063,-0.179933372881034,-0.30978885165302
201.274965800274,86,3.70396112631094,-1.27761741450199,-0.347230624410603,0.174143500382086,-1.12321522481125,0.464249108993806,0.355709486407525
202.27633378933,86,3.62022005927947,-1.01169010787802,-0.0464241672564099,-0.247109462867381,-0.826785023429831,-0.503051329029931,-0.213029166050306
203.277701778386,86,3.53647899224799,-1.69330946511199,-0.00404074070228389,-0.587808413925824,-1.15656694574242,0.468519452716837,0.397532748846058
204.279069767441,86.1414377564943,3.48882231874141,-0.993455146922076,-0.212041732693709,-0.182335376195476,-0.955012258641375,0.0547719340943712,-0.0227077584688906
205.280437756497,87.1428057455505,3.53392893980845,-1.11996453488383,-0.250140546101042,-0.0235800923655684,-1.16630649931601,-0.272290042533915,-0.112079517291278
206.281805745553,88,3.57311015047878,-1.28995845553885,-1.11012295047856,-0.449931801370471,-0.898636049234807,0.53864159551173,-0.0102417710765924
207.28317373461,88.145541723663,3.59726314637482,-0.47663909671831,0.597665315051023,0.0427150241316222,-1.24682768262762,-0.62170096361202,-0.0490426331325522
208.284541723666,89,3.56232146374833,-1.15015230095792,-0.11905584879393,-0.199392869036441,-1.08355054172306,0.102479608644616,-0.0342310743099357
209.285909712722,89,3.37950170998634,-0.991330263806655,-0.138502908112597,-0.498670979161619,-1.04003712175283,-0.0349864043976769,-0.299094376418955
210.287277701778,89,3.30283429548565,-1.10827482762853,-1.3751501537697,-0.523564711898753,-0.989655857049106,0.93218484801926,0.152250472913728
211.288645690835,89,3.48827763337897,-0.423380442131488,0.0544184545570463,-0.236897122574751,-0.897498967414551,-0.316517231166189,-0.253771715684095
212.290013679891,89,3.50779367989043,-1.57952163610538,0.022175142537136,-0.262807786866998,-1.33948561421881,0.544411985217594,0.14362431750535
213.291381668947,89,3.12300801641568,-1.03429375786973,-0.122102807587028,-0.188587780986992,-0.925807731874353,0.173162003008755,-0.0586871849791737
214.292749658003,89,2.94271549019628,-0.901807983528236,-0.001224343526834,-0.41631708470751,-1.11732252941358,0.236766723541796,0.0635618747151169
215.294117647059,89,3.25415762425925,-1.59180685225886,-0.578525416964116,-0.620751657591555,-0.670486097537959,-0.215253512342435,-0.00350353793149215
216.295485636114,89,3.56559975832166,-1.2502506241858,-0.356313796112793,-0.325011644789514,-1.35050021613811,-0.365858866195109,-0.193046663754314
217.29685362517,89,3.76937444596447,-0.998030686783755,-0.219378378003116,-0.274085883087636,-0.945574325651702,0.113794656591671,-0.328334241208817
218.298221614226,89,3.71929102599182,-1.14492409411773,-0.108439975654839,-0.175993000765816,-1.31499247671819,-0.292896879606349,-0.164890150553903
219.299589603283,89,3.60761964432296,-1.43104128044389,-0.466469988928663,-0.404690575155568,-0.767217852256322,0.152516806839752,0.165181545826462
220.300957592339,89,3.35261627906984,-1.62398618604647,0.273020572093803,-0.760525525582459,-1.17584781395369,0.543186562789194,0.136031177208441
221.302325581395,89.1646935704484,3.22567290013677,-0.968677295793314,-0.112550257730298,-0.42532421730397,-0.964297986040599,-0.027407208668841,-0.191550906448033
222.303693570451,90,3.39292138166895,-1.54059025513341,0.185528419395355,0.103513925665638,-1.15988919425098,0.645233334445813,0.464125750488417
223.305061559508,89.8325704514391,3.42630917920653,-1.30042312720865,-0.115075226584927,-0.134381363335668,-0.767183678029961,-0.520187843933398,-0.130134263893589
224.306429548564,89,3.15612006839937,-1.67714904240736,0.193863640636044,-0.136760989148405,-1.26346549487047,0.509404010362959,0.433645543473558
225.30779753762,89,3.05635381668959,-0.972283912174378,-0.104680688757289,-0.292716356498518,-0.954585091654174,0.0347458055759137,-0.122068629115458
226.309165526676,89,3.33815378932985,-1.27764255211402,-0.292662734093792,0.0548273270404231,-1.17064578111406,0.740465179353895,0.270979608073269
227.310533515732,89,3.45805816689449,-1.21795992519856,-0.0418530259137487,-0.0908548136880776,-0.695053627899973,-0.548383439677105,-0.132868455381325
228.311901504789,89,3.22008807113522,-1.74672786319028,0.574562349069655,-0.222888502104326,-1.19535435293567,0.503199428116719,0.520335221266941
229.313269493843,89.1756374828965,3.14847153214751,-1.01203294017265,-0.134626267168325,-0.515005521502095,-1.033525310531,0.0785155654132949,-0.0834812746136845
230.314637482899,90,3.43993971272211,-1.10836456635193,0.155464946907247,-0.753580116808974,-1.01979023887137,0.333231346546116,0.0781784638613652
231.316005471956,90,3.63986257637939,-1.52360600820348,-0.129908391245881,-0.277624289280422,-0.645522775376494,-0.351152598628081,-0.148734050724867
232.317373461012,90,3.64248949840401,-1.27176453215756,-0.268070900789868,-0.340726692085329,-1.22080990150743,-0.224017364874552,-0.170678360875741
233.318741450068,90.1811094391214,3.64511642042864,-0.955381454992786,-0.158095090834877,-0.349777895212654,-0.951889707416812,-0.00124161218194508,-0.0738385693737683
234.320109439124,91,3.66284849521204,-1.10598793433628,0.0270194523527009,-0.117757319288223,-1.04820350642889,-0.42513698632065,-0.0814993991266193
235.321477428181,91,3.71252636114912,-1.82023990424039,-0.918438715048753,-0.414281142270199,-0.936118618280191,0.66668855250686,0.27691985203875
236.322845417237,91,3.69213846785222,-0.391302707453128,0.300660384519796,-0.0935386959568479,-1.33692725307941,-0.542954509985402,0.0457423550478596
237.324213406293,91.1865813953464,3.52541069767436,-1.18833769767846,-0.132820513956506,-0.173091612085968,-1.0817151162782,0.321413181395205,-0.0523910260461544
238.325581395349,92,3.45848095759241,-1.02596456812535,-0.332659205881184,-0.113930882901437,-1.06827017510464,0.0498243542386935,-0.126527697572437
239.326949384405,92,3.59741075239407,-1.032475356899,-0.982700886186163,-0.392400734897593,-0.936671939118848,0.641731575517998,0.130486157385025
240.328317373462,92.1906853625151,3.6409625718193,-0.43669309100455,0.298161432207947,-0.199620218965287,-1.06709161258216,-0.421421325030487,-0.0647453245691177
241.329685362516,93,3.49019660738727,-1.09326120109731,-0.140407717567593,-0.36698603474249,-1.05937118467739,0.257484617443302,-0.265975329550245
242.331053351572,93.1934213406257,3.40293641586864,-0.982357620383147,-0.0940439871828134,-0.0370042543546711,-0.959740166144809,-0.430036926791099,-0.629516330543826
243.332421340629,94,3.44347179206564,-0.951606474391455,-1.45842833930821,-0.669408493350091,-1.01438620341631,0.84009767044969,0.215665464161605
244.333789329685,93.8038426812618,3.48400716826264,-0.500202645143585,0.0799744489193501,-0.107016020574511,-0.927357075787012,-0.331998310807398,-0.092064644186355
245.335157318741,93,3.42671800273604,-1.37846593105384,-0.159071586155932,-0.337104398686396,-1.18188395621827,0.27661662269765,-0.0269553850591334
246.336525307797,93,3.17616571819428,-0.952382219275769,0.020898343606972,-0.220815231906063,-1.01719351436593,-0.105055992830567,-0.133095577446233
247.337893296854,93,2.98106060191518,-1.28834782671728,-0.129129268948229,-0.202790374772747,-0.892960850261644,0.498226075693095,0.304911809247383
248.33926128591,93,2.89416689466483,-1.30084556775189,-0.00433700803438931,-0.0533827287178498,-0.724445109434355,-0.531339258566671,-0.054148809222329
249.340629274966,93,2.9734017783859,-1.60292762172285,0.231631029090283,-0.825988267017651,-1.07502436659071,0.558857887291544,0.336771603660432
250.341997264022,93,3.3729325854995,-0.975447582146043,-0.0767719138255444,-0.562241372382837,-0.971413162927528,-0.0131880370930431,-0.0687589234195833
251.343365253078,93,3.59815937072497,-1.20661075369792,-0.0580641614438181,-1.33569354681086,-1.06731887551842,-0.0244506208164695,0.197411022622703
252.344733242135,93,3.49137849521196,-1.61408339261983,-0.212827513548047,-0.25127115568432,-0.658261009575858,-0.411892184676709,-0.0524835852642798
253.346101231191,93,3.40045553579566,-0.894461533247875,-0.343545383384809,-0.465092242780817,-1.33980560875365,-0.504270589868512,-0.151314983308072
254.347469220245,92.7901627907013,3.33937542635664,-1.00509740155304,0.0265735899227134,-0.239559953501893,-0.949951269767728,0.00896276279096345,-0.150270474882426
255.348837209302,92,3.2782953169175,-1.04189575923235,-0.0186208649842489,-0.0823298585471533,-1.07080624441363,-0.0293320629720497,-0.10663172786134
256.350205198358,91.7874268125888,3.26859118331049,-1.5272159231347,-0.879510281292931,-0.681362664957133,-0.881703491112967,0.531994991938151,0.368940985356456
257.351573187414,91,3.3538426470588,-0.289031466671664,0.253348321557792,-0.111457466661789,-1.09373492940387,-0.53880992100246,0.089958043179844
258.35294117647,91,3.47117149110804,-1.19659629309535,-0.20004347704532,-0.207193687262926,-1.07820766706406,0.131876542305228,-0.0594039468131206
259.354309165527,90.7833228454201,3.64708180574555,-1.0012975149774,-0.0395317591485767,-0.600202329692599,-0.983884803228118,-0.0569661953793311,-0.103407872503651
260.355677154583,90,3.66247533515729,-1.06583390914813,-1.08367231220172,-0.273739610006122,-0.847760582078059,0.600030846919739,0.0474514601363568
261.357045143639,89.7805868673076,3.38820064295478,-0.56308757984966,0.00614265466639697,-0.010351761834436,-0.883257426193938,-0.331918913503912,-0.039588167004896
262.358413132695,89,3.23141427496582,-1.72040283447585,0.230021801535343,-0.166332537015253,-1.32499980164349,0.421171837538145,0.0914840346935349
263.359781121751,89,3.28414130642958,-0.959137725855889,-0.159507797922859,-0.337534855447698,-0.992043206703075,0.072231081532785,-0.106230628070008
264.361149110808,89,3.44179347469244,-1.34375343840982,-0.12587264338344,-0.326463139716201,-0.881408745517672,0.219579855371177,0.062397510466885
265.362517099864,88.7751149110827,3.78435145006869,-1.48842883064307,-0.212151127770156,-0.13553395463761,-0.625696587598479,-0.591882973914709,-0.0353039407555558
266.363885088918,88,4.12690942544432,-1.07045794115851,-0.587597115966763,-0.360889033177271,-1.46683916005463,-0.607997197652801,-0.151021175808248
267.365253077975,88,4.46946740082056,-1.04920766675782,-0.0770908786202845,-0.182452100081201,-0.976474264790819,0.00873298906898598,-0.0526588846186469
268.366621067031,88,4.340747311902,-1.05775846955919,-0.202380484803589,-0.296716280415181,-0.805956213018963,-0.559576280464836,-0.402147969836147
269.367989056087,88,3.40086832421376,-1.62437817783466,-0.149946530504622,-0.304625332279516,-0.807443900092622,-0.0195375312279678,0.0748533609242514
270.369357045143,88,2.79699288189695,-1.36187371225004,-0.118614247618924,-0.461213544497261,-1.29607876959082,-0.21451610632449,-0.35953839996185
271.370725034199,88,2.76469542635659,-1.04939948837586,-0.115392115461317,-0.222166720927303,-0.95884927965123,-0.139521177855143,-0.0390755051137617
272.372093023256,88,2.73239797081623,-1.14035240526885,-0.0902286117064421,-0.0660732107153145,-1.02823717784016,-0.371377639908991,-0.147937815906205
273.373461012312,88.2358290013653,2.89449745554046,-1.67797920177565,-0.375010668426775,-0.595311651972201,-0.647919488590902,0.0446232975555541,0.0342900330560536
274.374829001368,89,3.38153781121768,-1.60516374883723,0.156231109603277,-0.801771138714015,-1.34394784039431,-0.428682390601317,-0.179485321108853
275.376196990424,89,3.59676347469208,-1.13623811309518,-0.150055596255945,-0.144073546007821,-1.0004296244873,-0.0263329107248658,-0.0127234099032688
276.377564979481,89,3.36290399452789,-1.04704253144009,-0.0512381538829437,-0.489196188901032,-1.02845641514251,-0.174923786137147,-0.0930279408072317
277.378932968537,89.2413009575903,3.28031302325594,-1.55154470860043,-1.08651927279832,-0.283039877153837,-0.932473655859212,0.773482703428608,0.390173569478363
278.380300957591,90,3.44475767441846,-0.313572761188277,0.208693745964403,-0.0280908287009134,-1.02304849166339,-0.524207114988683,-0.0161733766107658
279.381668946648,90,3.62838098495196,-1.20904954240738,-0.0897390358204011,-0.255732520171506,-0.989889212722029,0.117882707304554,-0.0725834675537127
280.383036935704,90.2454049247572,3.84296413132683,-0.965239412404183,-0.0219318301969515,-0.329988102510411,-0.955440592859452,-0.0318661424837276,-0.151453561175129
281.38440492476,91.2467729138134,3.82754367989073,-1.34578954995216,0.926539718146983,0.00987213402647927,-1.03055998253045,0.507117224796727,0.389714499171791
282.385772913816,92.2481409028696,3.44509621067042,-0.763661042196732,-0.040515531754552,-0.12733050745703,-0.756642423192458,-0.543006140494824,-0.0137745526565117
283.387140902872,93,3.29872616963061,-1.74205022639703,0.420224819871321,-0.264201054389098,-1.25933559370612,0.684905280304102,0.303247114410005
284.388508891929,92.7491231190179,3.52475995896033,-1.0177176751836,-0.0424032462760289,-0.273946899152573,-0.99788486206935,-0.00739883936249271,-0.146426209991285
285.389876880985,92,3.52921417236657,-1.14413190131923,-0.141790695799893,-0.98640667566757,-1.18432392557803,-0.0903184096710841,0.0352546985999475
286.391244870041,91.7463871409054,3.18812820793424,-1.4336435436437,-0.0427811489193031,-0.179481235568146,-0.698295628572383,-0.512383885870415,-0.0650830447445458
287.392612859097,90.7450191518492,3.00613564979483,-1.46308092544751,0.111035722942663,-0.568182284666354,-1.24273544801126,-0.163087805999338,-0.16637938629039
288.393980848154,89.743651162793,3.06941209302329,-0.977408906976085,-0.130381700835318,-0.262066815346687,-1.01689451162745,-0.0731169948948801,-0.11129312030033
289.39534883721,89,3.13268853625176,-1.06559478191601,-0.174686594803549,-0.607014099522957,-1.16165619791081,-0.290932519615612,-0.297012004708982
290.396716826266,88.7409151846805,3.06115952804353,-1.82417580368789,-0.0549956305216937,-0.259869428314176,-0.5675194276613,-0.610574211544703,-0.084885472734208
291.398084815321,88.2604528043739,2.78533772229844,-1.30403248100505,-0.129697568849584,-0.920656587944626,-1.29717541449918,-0.353164884676433,-0.212659835295124
292.399452804377,89,2.95204010943859,-0.982968927325742,0.0190494701189874,-0.71226775529929,-0.917879975485991,0.0758014973289178,-0.0527896906803619
293.400820793433,89,3.78177362517059,-1.03507308462038,-0.247050209260601,-0.293089532502334,-0.991842753225116,-0.537992550494806,-0.36567320359026
294.402188782489,89,4.09110857729154,-1.88434900139586,-0.945406069460722,-0.373902976099104,-0.899941825692148,0.759345113533924,0.0974349787237553
295.403556771545,89,3.62954803009585,-0.285292548420284,0.208338847638797,-0.0507899234351786,-1.3665865677348,-0.583538644452926,0.00307496620991002
296.404924760602,89,3.33639176470588,-1.0874009712719,0.102337067360001,-0.305038279343587,-1.00194102352826,0.335431765527938,-0.0884091897777916
297.406292749658,89,3.28988823529411,-0.997158586447535,-0.0608019140796893,-0.470767159309479,-0.987146915390169,-0.123442231236457,-0.297749859791268
298.407660738714,89,3.24338470588234,-1.27235158904517,-0.599420264481417,-0.564026884691574,-0.914533532419506,0.746869805482058,0.00998041592514473
299.40902872777,89.2713967168238,3.217000875513,-0.473611093617044,0.0892314930407948,-0.0782411188921402,-0.895089273566806,-0.323279762849586,-0.115670632842208
300.410396716827,89.72723529412,3.21958941176471,-1.44462733333603,-0.252092803914607,-0.277225152940328,-1.16383329411792,0.197465858823183,-0.177981988235127
301.411764705883,88.7258673050637,3.29732678522584,-0.923482983593588,-0.0238124265963982,-0.666706841817757,-1.01329677394077,-0.105516281458537,-0.260482886506
302.413132694939,88,3.48206415868688,-1.00601760874433,-1.37751771888651,-0.294291641310642,-0.988996413404757,0.827571783585946,0.291695558120532
303.414500683994,88.2768686730469,3.63843720930223,-0.401459068501112,0.193251777961102,-0.307687165660769,-1.10072922572775,-0.604488275252702,0.0270752572242141
304.41586867305,89,3.75487627906969,-1.16390853488328,-0.137335984288097,-0.50058024610218,-1.01419775311596,0.339668770865442,-0.235838079195139
305.417236662106,89.2796046511594,3.75861581395357,-0.966723444185754,-0.0792948220949174,-0.371049069769455,-0.976826267441503,-0.013166710465911,-0.127499606977146
306.418604651162,90,3.60545991792072,-1.33523966118942,-0.272144685001575,0.070834387886525,-1.00688967259552,0.827764037329933,0.0575471985995209
307.419972640218,90,3.45230402188786,-0.446328083182376,0.0321922872597007,-0.129867092204512,-0.873672195623911,-0.437411693159149,-0.132827921615106
308.421340629275,90,3.41012463748289,-1.60452145281042,-0.0476373051158881,-0.234577909699927,-1.22992673666646,0.238889819641381,0.0145178341308959
309.422708618331,90,3.51986455540356,-1.00812106525347,0.0585061761141263,-0.166103812939876,-0.948402872772699,0.0981766084393075,-0.089892087136123
310.424076607387,90,3.72782686730512,-0.927676879478963,-0.728575843706952,-0.307660352464229,-0.869919354723069,0.515104799591672,0.0557044668183008
311.425444596443,90,4.06875261285921,-0.389471577425753,0.0620082823015786,-0.229773737345194,-1.11148026387495,-0.569856988505827,-0.075083806953688
312.4268125855,90,4.09670833105316,-1.29510582764946,-0.18882918152528,-0.446175984443072,-1.1097741299589,0.205144880299381,-0.134176218057741
313.428180574556,90,3.70570417236638,-1.02020122790797,-0.0809059666214065,-0.199103447045018,-0.96376708741419,0.0576616644852691,-0.21486627996075
314.429548563612,90,3.61012562927519,-1.17493314629212,-0.265177391731501,-0.375472473975103,-1.00536553652548,0.114092290861293,-0.0945240261012501
315.430916552667,90,3.9056343296851,-0.571853558954236,-0.0206327778047133,-0.0294508951567433,-0.872845854450927,-0.491248238708169,-0.0935293295308725
316.432284541723,90,3.96452992248081,-1.57017114359628,0.0155903396637755,-0.320325148043836,-1.33227566347246,0.580968341564055,0.160347324086405
317.433652530779,90.2960205198324,3.71366387596914,-0.959154355129712,-0.0303180505850139,-0.345403574283614,-0.920970941905979,0.0406816434796312,-0.232314347917241
318.435020519835,91,3.46279782945748,-0.861038015046697,-0.253380273864809,-0.337409975103343,-0.822641483976818,-0.560146045685417,-0.278226542546077
319.436388508891,91,3.47776744186035,-1.85969252804307,-0.139953951572791,-0.307151601914166,-0.520745933793843,-0.455906728065942,0.164099057000565
320.437756497948,91.3001244870011,3.83500046511622,-1.62182650980224,0.0268773475805617,-1.12350564834456,-1.4784342024596,-0.578076503698696,-0.247415615048241
321.439124487004,92,3.9704102872777,-0.948969580847588,-0.195731708348824,-0.310517127765475,-0.995833,0.0446805262849064,-0.0141917713388314
322.44049247606,92.3028604651136,3.82337441860463,-1.06895793721296,-0.0244455310660626,-0.350561111612094,-1.02607634883788,-0.183681193044748,-0.175554432567912
323.441860465116,93,3.69770216142268,-1.92084967167644,-0.7822889023342,-0.384421568541921,-0.792290519272127,0.535167856205482,0.0736872650813834
324.443228454173,93.305596443226,3.59893222982212,-0.633937053993565,-0.0624842963685821,-0.929275266766398,-1.37211480985387,-0.365906890001525,-0.0820882087997076
325.444596443229,93.6930355677177,3.62319496580037,-1.0712673118988,-0.187427354992529,-0.247646460134123,-1.0425988508844,0.0079303292030548,-0.0320809258702651
326.445964432285,92.6916675786615,3.80068243502065,-1.02522780574616,0.0951556419973505,-0.254780600271122,-1.03458005061395,0.0171011942088555,-0.159947453627801
327.447332421341,91.6902995896053,4.01184038303715,-0.997601260287294,-1.63210609622711,-0.26336517335153,-1.12177923598249,1.03289343338331,0.276616168866499
328.448700410396,90.6889316005509,4.26447050615575,-0.542014445233944,0.0689886665672907,-0.0398656209748508,-0.880980494391493,-0.411862887814545,-0.170514290078583
329.450068399452,89.6875636114946,4.32953332421351,-1.50844043776674,0.179283077941308,-0.341855381120241,-1.22511551381865,0.468906117645231,0.183303179611045
330.451436388508,89,4.16610506155959,-1.06037924649104,-0.17591002051843,-0.227352416162367,-0.997814157396704,-0.0617808538062374,-0.238871349371069
331.452804377564,89,3.97354164158695,-1.36630510807252,-0.183932455199141,-0.179899773531199,-1.1045452476128,0.397084223458498,0.642189921780395
332.454172366621,89,3.74587562243507,-1.61954040219177,-0.512800703707921,-0.518224796981704,-0.585235074797497,0.0941448040619195,0.0442920652793866
333.455540355677,89,3.64904759233926,-0.44878176679587,-0.742955649520686,-0.349434765978943,-1.3556122535311,-0.443802030554206,-0.146616666946363
334.456908344733,88.6807236662135,3.70812830369357,-0.895073503971082,-0.208134352669161,-0.504469913228583,-0.911048297400865,0.158739810710614,-0.00451841803000254
335.458276333789,88,3.70671522571818,-1.05490136798448,-0.173837927182226,-0.215826161695738,-1.09099461559386,-0.0834899536831272,-0.118531117396123
336.459644322846,87.677987688101,3.63400589603281,-1.09987646126761,-1.30401459099629,-0.370791591365683,-0.979841696838997,0.687518300906997,0.0544671577062062
337.461012311902,86.6766196990447,3.56907149110804,-1.0861772427103,0.0652522702766642,0.00400088865103189,-0.821651610123821,-0.572679258003175,-0.272880705329365
338.462380300958,86,3.51320016415865,-1.6013306196962,0.430635035820891,-0.227759603583815,-1.23438917549175,0.539291795640868,0.59274445011759
339.463748290014,86,3.48631488372094,-0.908471073256701,-0.261611247094275,-0.489855677895942,-0.857507267444347,-0.00160698461110587,-0.163688218601122
340.465116279069,86,3.49284880984952,-1.11419152886602,-0.252260092931012,-0.1852345223723,-1.07642921094262,-0.521591709476107,-0.0622934795566587
341.466484268125,86,3.72090376196956,-1.6751141614327,-0.852334056624657,-0.404894311632815,-0.838195727773542,0.601699893986309,0.295417770332303
342.467852257181,86.3302202462346,4.20157041039644,-0.36612632319009,0.241245259232708,-0.0285483100952952,-0.962249827367928,-0.463277705343363,0.0620055755645617
343.469220246237,87,4.45580176470588,-1.1699345882226,-0.187248200001762,-0.122276541192939,-1.03647082352816,0.14786014117559,-0.134168484697296
344.470588235294,87.3329562243471,4.45463517099863,-1.03487097374306,-0.202138811215649,-0.392101247754608,-1.03021812010999,0.0449606148121317,0.108602713012021
345.47195622435,88,4.29625157318746,-1.26665105747686,-0.208112936567198,-0.737983438522055,-1.02945426637829,-0.0548626243806514,-0.0345854872334058
346.473324213406,88,3.96247559507524,-1.59702846950292,-0.0993305180335662,-0.730433371997087,-0.60652035486074,-0.466463315776918,0.00395556950341218
347.474692202462,88,3.71560123119013,-0.699720830616982,-0.447306539476896,-0.680520789197707,-1.43223522298013,-0.496283268731781,-0.187300050197652
348.476060191519,88,3.56461830369352,-1.04932924486998,-0.0227206717991076,-0.39231670918093,-0.99658549219847,0.296069628086392,-0.0721554410413633
349.477428180575,88.3397961696282,3.41363537619692,-1.04266761149139,-0.106779299734062,-0.775760292421577,-1.12461169722194,-0.137704275190509,-0.534767251037239
350.478796169631,89.3411641586845,3.26534456908336,-0.892828246512313,-1.6363153460138,-0.401591322004147,-0.925650803281207,0.906706508332234,0.102085982397617
351.480164158687,90.3425321477407,3.11997597811207,-0.636287450769713,0.0608541479201514,-0.0724192720557564,-0.860642084266228,-0.527999484544065,-0.0397744412861249
352.481532147742,91,3.11104357729125,-1.74722987552095,0.315911205199639,-0.501370865147976,-1.15263414226719,0.577746662947973,0.340138933252396
353.482900136798,91,3.24859649110796,-0.961769357318451,-0.231526190014572,-0.224403529141686,-0.870922751990366,-0.0593872001851984,0.0354896977793036
354.484268125854,91,3.29792874829004,-1.03402555129967,-0.0877266900957076,-0.305383735430795,-1.0509628281078,0.0982764094121368,0.204375327907661
355.48563611491,91,3.2535731532148,-1.57404553123515,0.138338034507988,0.0669976433942431,-1.10835227746748,0.561424542413035,0.338290484747876
356.487004103967,91.3493720930201,3.26706034883718,-1.65448225580171,-1.68936280468178,-1.21442401862662,-0.906359274439385,0.805738916332833,0.69220233948116
357.488372093023,92,3.34130677838576,-1.26139304106187,0.0343534462044589,-0.0317273593176116,-0.59626562654386,-0.685447675512236,-0.232356777346844
358.489740082079,92.3521080711325,3.39859279069767,-0.539716309991255,0.238136210566051,-0.0935806933373466,-0.972897325432941,-0.592602767690138,-0.214159558673078
359.491108071135,93.3534760601888,3.43825697674419,-0.466859842399779,0.213304490440778,-0.0980562955200213,-1.47011056042818,-0.886841567310961,-0.09491432142842
360.492476060192,94.354844049245,3.43389002735977,-1.87831688882084,0.171714365052621,-0.541476046730641,-1.37471726037397,0.485002596264038,0.276634272542841
361.493844049248,95,3.38427224350203,-1.87171898905399,0.175890591816392,-0.367305600745697,-1.50263390561433,0.552187791932706,0.294493527132208
362.495212038304,95.3575800273575,3.31010602599174,-1.24359918742831,0.0161200106098702,-0.346772461557294,-1.06818584952979,0.65434970396685,-0.0838136102830921
363.49658002736,96.3589480164137,3.21098561559501,-0.939078917783551,-0.163160287818715,-0.277792397606261,-0.926347469219276,0.0148565425285761,-0.0435146110643591
364.497948016417,97.3603160054699,3.29595552667601,-0.906320639584259,-0.29348927478454,-0.124649918468506,-0.781618494117418,0.0299145771680816,-0.0723081952017548
365.499316005471,98.3616839945244,3.56602447332399,-0.976765284810012,0.0551229619395323,-0.334013131888883,-0.895129612673957,-0.0259404040064224,-0.165114821730027
366.500683994527,99.3630519835806,3.52198961696331,-1.08822162106508,-0.0974795026112566,-0.235869998440492,-1.20502046785629,-0.423710145290116,-0.245229660747668
367.502051983583,100.364419972637,3.16556269493863,-1.11611804514425,-0.00165452505827806,-0.467755606838811,-1.12723209712732,-0.241702699733929,-0.127297993909058
368.50341997264,101.365787961693,3.1332878864568,-1.15205737619929,-0.353187689693621,-0.537512436725445,-1.22360571067156,-0.407324255937378,-0.459428522004936
369.504787961696,102,3.41989442544453,-1.08465306246673,-0.72476161349987,-1.08987903075064,-1.09193752091758,-0.796634409486467,-0.527843773289652
370.506155950752,102.368523939806,3.54262655950753,-1.84771507795796,0.413377286142924,0.259337300946941,-1.11944922161369,0.0777235764083377,0.649078411490061
371.507523939808,103.369891928862,3.50590138850889,-0.983684834749461,-2.15112013132719,-0.427346181675601,-0.919317687161157,0.425295727884848,-0.000644489829150089
372.508891928865,104,3.49826018239854,-1.49777603013208,-2.11049918463005,-0.822502013692582,-1.11814509983868,0.931958881814531,0.230504308403033
373.510259917921,104.372627906974,3.51861131782946,-1.92711799999869,-1.38981795349227,-0.690187023256432,-0.694273916336369,0.261170638188659,0.151903015870954
374.511627906977,105,3.53896245326038,-1.93067622434526,-0.59523249626965,-0.4258749545969,-0.312122100594451,-0.366689779653416,-0.230580738684667
375.512995896033,105.375363885087,3.69164227086201,-1.3723124377275,0.0334055591854811,-0.141563864551778,-0.433535199931026,-0.763772417093897,-0.209733340732175
376.51436388509,106,3.96961201094413,-0.810853550900391,0.172808169154454,-0.440980268962729,-0.70790546369485,-0.53386969179057,-0.161530915851434
377.515731874146,106.378099863199,3.94144311901476,-0.456606920589128,0.464186269790386,-0.218732789602936,-1.18168172931382,-0.694983380024474,-0.00330652889982134
378.5170998632,107,3.62657296853649,-0.640019704268483,0.83053328981853,0.0774212421524585,-1.38918388096851,-0.86705720738295,-0.182067908072046
379.518467852256,107,3.70312101231164,-1.84634820279653,-0.951779531446725,-2.12839079782937,-1.94313147195889,-0.341698891101185,-0.52793178276363
380.519835841313,107,4.14224590971252,-1.97766879822173,0.0244798845078885,-0.959907531323581,-1.48228322571218,0.975164796881778,0.436120219838726
381.521203830369,107,4.44793993160049,-1.97068730506254,0.398762878325376,0.141580899275866,-1.54227448973992,0.877418389046019,0.55208864923455
382.522571819425,107,4.6313805335157,-1.69612355402856,-0.0541933563331832,-0.00078151551698679,-1.29815103146462,0.579422030641394,0.0649726445687047
383.523939808481,107,4.5596371135431,-1.19587151390955,-0.0178871768468994,-0.222482873779841,-1.09427619241793,0.70471288572299,-0.0813609976688081
384.525307797538,107,4.25663317373457,-1.04888273461238,-0.353328796822204,-0.196926874709276,-0.941874608345577,0.0369934029638473,-0.00251508219547374
385.526675786594,107.389043775647,4.36379779753775,-1.04659846456669,0.0284644295916862,-0.35395951156594,-0.945901399453437,0.0377346608773852,0.0113485724768885
386.52804377565,108,4.5230352941176,-1.09945284182752,-0.0946580894094027,-0.661769298092809,-1.04816988234978,0.179765352949223,0.0588315210314086
387.529411764706,108,4.40093181942538,-0.994361827357415,-0.0437407636018591,-0.493092103697953,-0.997433289673658,-0.0295876267181577,-0.46550421897688
388.530779753763,108,4.27882834473315,-1.08855889740502,-0.0412671103753199,-0.125473737350745,-1.41561541542158,-0.381608311254722,-0.555032559861884
389.532147742819,108,4.37278362517124,-1.1517792013669,-0.632701992055933,-0.395567264623042,-1.19689417784221,0.0454985602334325,0.00873463740109922
390.533515731873,108,4.65620581395326,-1.2643211453498,-2.12360106976802,-0.70769549303477,-1.07630139534614,0.0995064279669881,0.377039372129426
391.534883720929,108,4.78171796169631,-1.63026068306542,-0.7957183460654,-0.283938253263186,-1.28260759230785,0.490970010009588,-0.0517167253067777
392.536251709986,108,4.77026731874146,-1.11388760510989,-2.10587716461071,-0.630865168357843,-1.12548298221318,0.995164513819599,0.235730360130494
393.537619699042,108,4.61842655266768,-1.78003911219446,-1.3185233570079,-0.793731650855824,-1.21278488301477,0.814816023724522,0.329965376588672
394.538987688098,108,4.34614958960334,-1.98255380300933,-0.610839639653082,-0.357655432279773,-0.450445451426765,-0.166800586203086,-0.183459200438292
395.540355677154,108,4.3796593844049,-1.05923840226792,0.12928579297817,-0.203637140534575,-0.375581794534019,-0.720365499316272,-0.168126245964079
396.541723666211,108,4.67262461012314,-0.782618501214485,0.257849207395543,-0.158957120995258,-0.77445210814636,-0.476545768063741,-0.0100017718793783
397.543091655267,107.59454035568,4.84123525307799,-0.363588807590645,0.406296946716538,-0.441925194290371,-1.24326083173854,-0.745900723033315,-0.0446111130364892
398.544459644323,107.406827633376,4.90548803009578,-0.371280410592818,0.252788303199258,-1.72353097659127,-1.89469879452479,-0.72315266763356,-0.364325355732991
399.545827633379,107.591804377567,4.69345900136776,-1.94100531532101,1.07318889541768,-1.27459026648317,-1.21897661723587,0.781243749435149,-0.0243168449855123
400.547195622436,107,4.25211607387112,-1.97736869220244,0.758697260342461,-0.608017126826139,-1.45083603280695,0.722130680709078,0.320769628641861
401.548563611492,107,3.87363032831711,-1.39463663202032,0.0937692489575718,-0.338182672514511,-1.15452975374763,0.639064354008604,0.0602952043341313
402.549931600546,107,4.00788932968492,-1.11579388350939,0.0265274638626704,-0.617378351843733,-0.887591607783636,0.347075701232188,-0.157577871439476
403.551299589602,107,4.51861704514327,-0.953265174216227,-0.239036538375093,-0.375393678034022,-0.903956290021131,0.206444575100965,-0.0192559774315082
404.552667578659,107,4.81848159370718,-1.10101248499097,0.0344362980279865,-0.196556810114573,-1.00650893486317,0.0562177640684291,0.0297554903088671
405.554035567715,107,4.94809365937067,-0.910570385579046,-0.108310379696053,-0.521230997499531,-1.10255963000374,0.00933196145466846,0.00664386792125425
406.555403556771,107,4.81092585499326,-1.14393144323004,0.010322060202362,-0.335468760737055,-1.21418673089875,-0.195939222432893,-0.0964863522500312
407.556771545827,107,4.46072744186051,-1.18353710699043,-0.72448298883436,-0.0779555441660619,-1.31489623252878,-0.379551241873819,-0.260441113965206
408.558139534884,107.420507523937,4.425207250342,-0.864055646952019,-0.662559627331016,-0.667893348581505,-1.15100515848722,-1.76986799569893,-0.665337807035307
409.55950752394,108,4.63819822161426,-1.932431669776,-0.495105754333759,0.570777417640631,-1.28964339227801,0.489130964059409,0.45167530008029
410.560875512996,107.576756497951,4.6212231668946,-1.53560874968262,-1.23672748411715,-0.075678481443219,-1.02966435894509,0.568291675791523,0.155749642440457
411.562243502052,106.575388508894,4.42463961012303,-1.64651057348265,-1.79343849847775,-1.42143298936063,-1.10585109816553,0.747747428821891,0.839998289287483
412.563611491109,106,4.40628448016423,-1.95313526281096,-0.90952024602726,-0.808222107647645,-0.297235188765247,0.0330306215761765,-0.171596244696754
413.564979480165,106,4.52559246922034,-1.33013253489997,-0.0235393332769759,-0.0905258628577346,-0.321823866056701,-0.779311867591154,-0.0519185368223191
414.566347469221,105.571284541726,4.68755954400382,-0.893884287373105,0.22490539248321,-0.379117213951826,-0.74345072875806,-0.476604496575255,-0.309103027690706
415.567715458275,105,4.88211199270391,-0.411195963874822,0.489923494675626,-0.0499030494082082,-0.881618752195253,-0.799266320080981,-0.0762966312571972
416.569083447332,105,5.07666444140435,-0.419827024217328,0.740696713152964,-0.301818697524609,-1.42577739944907,-0.980404779138024,-0.147879272782037
417.570451436388,105,5.16402266757866,-0.566698570821079,-0.0380446983184139,-0.664793172240106,-1.92762262241444,-0.453234012216536,-0.247209744945592
418.571819425444,105,5.17085700410396,-1.70524173324332,0.753915759209299,-0.804801706014316,-1.38498723565097,-0.330122140223813,-0.479543099757738
419.5731874145,105.435555403554,5.19359252051983,-1.94859517715356,0.383408956626528,-0.443448079349173,-1.63405963474776,0.909762330776632,0.298556308742726
420.574555403557,106,5.22814034199726,-1.56902050992437,0.0786163370940098,-0.191387794355328,-1.2466791725123,0.675447416078408,0.00813604814335088
421.575923392613,106,5.2626881634747,-0.947339626814527,-0.189087553901006,-0.188626337015735,-0.859378633723509,0.203131414360993,0.0770006103707057
422.577291381669,106,5.29723598495213,-0.983934121955977,-0.107580516336824,-0.293645560707552,-1.00381704787955,0.140363938713439,0.116339346375323
423.578659370725,106,5.33178380642956,-0.875071994980275,0.0508618485324655,-0.70388272963947,-0.911327350100689,0.12735420238387,-0.177260677262836
424.580027359782,106,5.366331627907,-1.11234277519423,0.0859581981386175,-0.115313836203336,-0.99715479650539,-0.0515807050689233,-0.256457704090357
425.581395348838,105.556236662109,5.40087944938443,-1.17156202803929,0.0438410106519777,-0.140997235010404,-1.19637397401565,-1.1337146711675,-0.421863418025998
426.582763337894,105,5.43542727086186,-1.1693497120237,-0.866595106522076,-0.535078713648212,-1.12797124197149,0.501645043645601,-0.0315431575206231
427.584131326948,104.553500683998,5.46997509233923,-1.81686784952658,-0.0541450418526465,0.366443416431156,-1.44702161939301,0.590138945539844,0.606427587211367
428.585499316005,104,5.50452291381667,-1.51080506431348,-1.35057932964902,-0.647687099599359,-1.08936136388625,0.611171890902926,-0.0553007188992855
429.586867305061,104,5.5390707352941,-1.18668241176329,-2.15558900000002,-0.429008949992443,-1.21184217647444,0.996491852938741,0.129818275901797
430.588235294117,104,5.57361855677153,-1.95825536252139,-1.07517465850329,-0.961730537389948,-0.600895397600366,0.10352865088163,-0.0576737307704722
431.589603283173,104,5.60816637824897,-1.75171283263289,-0.243557161106736,-0.87399723498392,-0.338944874214852,-0.845174532972009,0.0588303488772308
432.59097127223,104,5.6427141997264,-1.14694722555735,0.138815436761561,-0.288623277903371,-0.409549655270095,-0.764271638303236,-0.0799220378675765
433.592339261286,104.454707250339,5.67726202120383,-0.702957293565338,0.19834284087578,-0.212634502045508,-0.672963966931056,-0.484313672465324,-0.0853391217429627
434.593707250342,105,5.71180984268127,-0.420645868154718,0.525090687534066,-0.197007188208285,-0.93924670334952,-0.675772374964502,-0.0987903562944773
435.595075239398,105,5.8065920930233,-0.47135495997187,0.593431344777784,0.0230992730556031,-1.90752167540263,-0.593721289803439,-0.396910790855247
436.596443228455,105,5.94226744186053,-1.5336878135914,0.363014592358779,-0.756892128930707,-1.85363719345279,-0.916501395309748,-0.571709338551206
437.597811217511,105,5.56773870040994,-1.97674334062923,1.14222984882816,-0.72401422546812,-1.34141086798405,0.905723098964882,-0.183425138748861
438.599179206567,104.53845280438,4.85074419972584,-1.97763481737356,0.656276523480745,-0.0667518741648123,-1.33389529477691,1.0459161874115,0.62475025290577
439.600547195621,104,4.52936447332427,-1.83544302496723,0.0471824822404044,-0.407965189372135,-1.45795720747755,0.633808742650654,0.367476328108294
440.601915184678,103.535716826269,4.47052909712727,-1.22806533515774,-0.0696534051431522,-0.236410249110707,-1.13785873324311,0.611481390834442,-0.0155889383572904
441.603283173734,103,4.66340093023235,-0.939531688371409,-0.132503925581552,-0.247619181395009,-1.00926023255965,0.0703891534942096,-0.0190330318190401
442.60465116279,103,5.02142002735962,-0.993953277792577,0.119109797149166,-0.385027143633627,-0.911338300958946,0.296013825168984,-0.0391150021065259
443.606019151846,103,4.92335212038315,-0.894696380847772,-0.130248305831759,-0.234371670129653,-0.868114461121979,0.111663067486361,-0.0876475265826813
444.607387140903,103.469755129956,4.5294439945281,-0.979236485704664,-0.170178213617429,-0.630291420675114,-0.983020668443811,-0.0221722229362539,-0.102801724592968
445.608755129959,104,4.64585199726402,-1.16619639671016,0.0107717497660872,-0.167502479735238,-1.15674692134334,-0.149724898180024,-0.269487346131191
446.610123119015,104.472491108068,5.08950307797544,-1.15819705243245,-0.0940215750722523,-0.432935821881277,-1.18838976196359,-0.790511243807629,-0.450118449253241
447.611491108071,105,5.10326720930225,-1.63990963980828,-0.626513330983972,-0.0752542358042592,-1.10991182831692,-1.62597202929154,-1.03595845186039
448.612859097128,105,4.84451372093012,-1.5171767859193,-0.484352419745294,-0.998685638063706,-1.11466788691015,0.208571619347807,0.446255159203803
449.614227086184,105,4.90756255813969,-1.59494591655179,-0.373721412043434,-0.580226410409037,-1.46148386053786,0.175371151627595,-0.136266650755641
450.61559507524,105,5.1722741860467,-1.28671145008738,-2.14636985499126,-0.639475519437331,-0.756948222722059,0.233954370167824,-0.0881269682389872
451.616963064296,105,5.07217049247578,-1.50449474778987,-1.95661942000993,-1.14562205537392,-1.15325221817592,0.695577013986973,0.368448853550637
452.618331053351,105,4.85577619699054,-1.97494932967075,-0.761227993327913,-1.15244898511546,-0.292832986943479,-0.196425601864615,-0.143376079044646
453.619699042407,105,4.70694621067041,-1.83354760866585,0.0784496317217317,0.00289656969336528,-0.282838080438784,-0.824152786325142,-0.0731995849535572
454.621067031463,105,4.55811622435028,-0.727822622747175,0.257018811786626,-0.091539620192552,-0.81820598045037,-0.549701947903453,0.008922449980414
455.622435020519,105,4.61134019151841,-0.447876009807728,0.394619539938831,-0.468456580451812,-0.851913896304021,-0.526757425442974,-0.0553891243219546
456.623803009576,105,4.90934347469213,-0.408009589837307,0.368957235360797,-0.269539729747238,-1.74534132868438,-0.746549081491218,-0.663181623890936
457.625170998632,105,5.2810512722298,-1.30727178396331,-0.412302731242065,-1.02300593713516,-1.47956591790694,-0.895859691929652,-0.132646910933729
458.626538987688,105,5.1575602325581,-1.78770477517932,0.275877206186221,-0.898777677505826,-1.55445403481831,-0.428511918583196,-0.823013053525362
459.627906976744,105,4.73953916552658,-1.87828852259376,0.772745359920657,-1.32487554277193,-1.43125711080828,0.327529746300463,-0.358611969344536
460.629274965801,105,4.96152294801664,-1.97726056634753,0.499695069079085,-0.776469625490043,-1.23552604924013,0.318484903331462,-0.292726803680274
461.630642954857,105.49301094391,5.55973517783889,-1.94505192312075,0.743128117934919,-0.306792918300371,-1.33265500957635,0.906860790700295,0.988567602731044
462.632010943913,106,5.41619417236624,-1.80446683722676,0.0189188137234783,-0.0826148985985665,-1.20857850616625,0.839517111905252,0.100801002736911
463.633378932969,106,5.01532801641562,-1.46576864845128,-0.0927164437558111,-0.387219351434315,-0.998980148566442,0.295030279623823,-0.041734699721115
464.634746922024,106.497114911077,4.71474738714116,-0.96179589711256,-0.15253809354747,-0.204605253284143,-0.886402609536977,0.128974429157912,0.00412605210405775
465.63611491108,107.498482900133,4.74522437756482,-0.987693900546471,0.047081779636934,-0.469998241578587,-0.892001480753093,0.0218441536594014,0.010524816108034
466.637482900136,108,4.9646741723665,-0.974866885274468,-0.210513656354177,-0.457878797818661,-0.902451331232354,-0.0586847526951028,-0.106533611701275
467.638850889192,107.498781121754,4.94960859097133,-1.09555723255824,-0.120875126676331,-0.211152892831528,-1.14030201094313,-0.169745661558676,-0.033021360218216
468.640218878249,106.497413132698,4.80225228454176,-1.12929291106399,-0.726196508811246,-0.246351497650409,-1.28723745923104,-0.578024328939498,-0.477337151438092
469.641586867305,106,4.8143005608755,-1.44168872229867,-0.452780174832674,-0.427777530102995,-1.18275796990363,0.349768311327979,0.388044452598015
470.642954856361,105.494677154586,4.9152084131327,-1.5068933720837,-0.918404306639163,-0.374845285918425,-1.28594986598506,1.26625690018003,-0.020952509942189
471.644322845417,104.493309165529,5.08436255813957,-1.04760169973047,-2.09997864567698,-1.13511027164397,-0.927497790714743,0.633047784939771,0.560785583299386
472.645690834473,104,5.29111000000007,-1.93813672548115,-1.3995071294592,-0.877531599961373,-1.31181784700487,0.859125823494061,0.512083611735373
473.64705882353,104,5.44737741450074,-1.97292954947044,-0.663450377730453,-0.48994891710278,-0.475295911367681,-0.746138407925148,-0.00818585106881183
474.648426812586,104,5.57616835841321,-1.17873025653517,0.14374538392736,-0.154609938298933,-0.359930952999922,-0.710437321612185,-0.249838037904555
475.649794801642,104,5.30355325581358,-0.874651931983374,0.172228199417184,-0.395605295344817,-0.538343037213713,-0.61762888371538,-0.276827817664703
476.651162790697,104,4.81505590971317,-0.449201257281697,0.501755428731657,-0.0983404720519438,-1.0051058942461,-0.682660734970225,-0.0337198627214833
477.652530779753,104.514898768806,4.71503001367981,-0.698557892688765,1.19814236989262,0.0337503926726478,-1.62956500687769,-0.873807985770048,-0.151348264299408
478.653898768809,105,4.82143036935698,-1.87776759237304,0.271852527699211,-1.09661094006126,-1.51384477838658,0.0529946347437772,-0.538959466394049
479.655266757865,105,4.9296857181942,-1.96719917099744,0.197819806502148,-0.167747644957222,-1.65056182763325,0.832552151856843,0.825912110562473
480.656634746922,105,5.03891493844046,-1.48994084869684,-0.0424642572554577,-0.215115919425703,-1.30490306429819,0.636693834322446,0.0438133007984962
481.658002735978,105,4.97315705882356,-1.33290685087643,0.0562891597909419,-0.284117747734784,-1.26530347742433,0.678485951021396,0.0170475781030261
482.659370725034,105,4.81663823529412,-0.97585477798646,-0.0870625484171895,-0.151282838442714,-0.814714767500843,0.0451935499189102,0.0855438416185677
483.66073871409,105,4.84846228454174,-1.1427508208005,-0.183236589607542,0.0521698150563289,-0.987280867305948,0.130285465936823,-0.0427844141713848
484.662106703146,104.4755253078,4.97679259917924,-1.00439324056886,0.064574771215524,-0.615596284206895,-0.926171531456965,0.0907607983188633,-0.31348620831756
485.663474692203,104,5.32121783857748,-1.13824954719809,0.0170532088821275,-0.0536637917393899,-1.13716635749892,-0.888956866038504,-0.492430496951885
486.664842681259,104,5.77502445964458,-1.03803775284521,-0.887205842776311,-0.39010320072689,-1.16398360419559,-1.02061676243872,-0.528522894492089
487.666210670315,104,6.22883108071167,-1.45009936801297,0.350501529330586,0.857560593275946,-1.11955574281905,0.530369438702292,0.544060352459502
488.667578659371,104,6.46424557455551,-1.70927652940929,0.74769012144863,0.202110836500677,-1.16930052159107,-0.0201608261133737,-0.00266402353215512
489.668946648426,104,6.59113391928854,-1.43895338576783,-1.96716868947358,-1.42266229467542,-1.12106870587758,0.770371126135585,0.76005334485484
490.670314637482,104,5.90263985636188,-1.97730438578371,-0.262384197986509,-0.482591750752427,-0.28437974091648,-0.484667801127941,-0.0719951043095358
491.671682626538,104,4.81392754446022,-1.77684115596436,-0.325593536955007,-0.455743377421559,-0.331311037845955,-0.810861950657919,-0.0937291332438252
492.673050615595,104.535418604648,4.74842290697658,-1.00783473316252,0.129382579063037,-0.304442659292332,-0.530142352329591,-0.724394911626169,-0.170549636048686
493.674418604651,105,5.17895606703136,-0.81246645490392,0.21425361960766,-0.108052073160381,-0.726162981531471,-0.541518286047112,-0.102254536675462
494.675786593707,105,5.2468424760602,-0.387246638852916,0.337871762518096,-0.196919317643751,-0.883924133606343,-0.60747411992606,-0.08879472837243
495.677154582763,105,5.14109801641586,-0.637727580847635,0.85844984623591,-0.0523163181930175,-1.69732397373759,-0.820925802403255,-0.469700124836682
496.678522571819,105,5.44893098495222,-1.5673118276336,-0.803760683989469,-0.495340644321185,-1.6767688919262,-0.668596813537427,-0.716789959232939
497.679890560876,105,5.95231867305079,-1.97092883781736,0.815339068489826,-0.607789919655292,-1.5573400328342,0.964559481262462,0.555630395080156
498.681258549932,105,5.89822574555388,-1.97667,1.09673318851147,-0.588079854900441,-1.52937864910589,0.907098279610202,0.0711040985842352
499.682626538988,105,5.58382623802989,-1.93101879616702,0.283082333295258,-0.117949825163135,-1.47974365253084,1.15958133105339,0.208674853078903
500.683994528044,105,5.53280469220252,-1.63388210532179,0.00181805823954868,-0.165643923262993,-1.04021126619795,0.573725344162881,-0.0651356292482096
501.685362517099,105,5.60322088919282,-1.31309217778458,0.102788958485897,-0.182666734455119,-1.07222352303944,0.536658935899117,-0.0260119003846571
502.686730506155,105,5.67363708618326,-1.03211265615859,-0.149211752029162,-0.130690895001935,-0.938944254061679,0.0709784490191026,0.0179833124371173
503.688098495211,105,5.47886723666229,-0.967050386016506,-0.102860764672891,-0.238787619803941,-0.847444710446406,0.00311929926608478,-0.0283408697967152
504.689466484268,105,5.16413227086197,-0.864529058329458,-0.0392165912803974,-0.441635808154237,-1.15367643912405,-0.101807345933824,-0.14308921175266
505.690834473324,105,4.86082210670323,-1.11259016051698,0.10009627449094,-0.653614438314632,-0.99658736087129,-0.0129781795380348,-0.143677467256434
506.69220246238,105,4.97078439808477,-1.06820200547754,0.103405516118429,-0.260623735416773,-1.24658032899398,-0.339850422861743,-0.468806836111967
507.693570451436,105,5.26188707934337,-1.04794355401964,-0.712272003030246,-0.180694396289727,-1.16941677701561,-1.16197046384835,-0.777373134152135
508.694938440492,105,5.49200724350208,-1.2195948632082,-0.786210509704655,-1.58778558983324,-1.18673370042703,-0.754444950631848,-0.649256667369742
509.696306429549,105,5.69541011627913,-1.75168869769736,-0.0642186669553859,0.365586693114969,-1.08264724961442,0.157550611471838,0.0294510124063107
510.697674418605,105,5.70325238030092,-1.11090724349849,-2.0858090273796,-0.911850167765362,-1.13462577050666,0.916072297786645,0.26826774090312
511.699042407661,105,5.62651755129954,-1.89226193229326,-1.47488799109453,-1.12406697658887,-1.63823710195757,0.907384557901363,0.585212107656607
512.700410396717,105,5.39244400820771,-1.98443847606017,-0.523346119547994,-0.184425747684207,-0.288752441120086,-0.509492899933366,-0.0776413633810645
513.701778385772,105,5.09120247606047,-1.3938716397875,0.0836692271520314,-0.173925269153516,-0.372846357875946,-0.845258517784302,-0.114575799673782
514.703146374828,105,5.16386432968518,-0.863228054034253,0.175598680574909,-0.288437099589009,-0.630998079759744,-0.595164303825207,-0.113689444191629
515.704514363884,105,5.39407382352926,-0.420790923535513,0.486155735290373,-0.276170288226629,-0.878321411761028,-0.566786629410829,-0.0654163270596449
516.705882352941,105.568250341994,5.35864008891936,-0.883016903160541,1.11148449684289,-0.284919749685861,-1.77254706794555,-0.798611075417128,-0.281968093297014
517.707250341997,106,5.21273576607392,-1.96163767653564,1.0990163473892,-1.23913,-1.57298249795011,0.984555479888882,0.681238861974277
518.708618331053,106,5.71016069767427,-1.97318660373959,0.729072045421059,-0.514204880345547,-1.51497435020264,0.813853946481457,0.482087022969848
519.709986320109,105.427645690837,5.67366701778388,-1.44868484082664,0.0265121659131646,-0.264355429278179,-1.12761468782729,0.26573926492708,-0.223126333518659
520.711354309165,105,5.31185774281802,-1.16835383146551,-0.162610242658251,-0.175516116173879,-0.867383827221614,0.223782354859359,-0.0880753927485233
521.712722298222,105.575090287275,4.91853566347459,-1.00098687701826,-0.10885579796177,-0.285974140902524,-0.975472463654813,0.117654626176944,0.0604932993762633
522.714090287278,106,4.51253601915169,-0.944360660499289,0.146787722910401,-0.696355777025522,-0.896768495720207,0.0105290482740527,-0.354696443525045
523.715458276334,106,4.8151048016419,-0.983619523377513,0.00103108553716257,-0.654545118998811,-0.919376167166369,0.029824695596213,-0.293124215592406
524.71682626539,106,5.3989373871413,-1.12355311628045,0.0924257793082093,-0.22347181640579,-1.20023535431962,-0.257272277704363,-0.241181085563333
525.718194254447,106,5.18870065663432,-0.920351785875454,-1.00593697380655,-0.278690368098118,-1.04112879808445,-1.48356443718193,-1.2654636514008
526.719562243501,106,4.6674786046516,-1.0649981720928,-2.1557250883721,-0.488289880929735,-1.12007707557709,0.927433694180999,0.0574754690954975
527.720930232557,106,4.75736779753739,-1.18560463474208,-2.05408431188829,-0.761774527433833,-1.1691944065253,0.937363443490268,0.0969119738237108
528.722298221614,106,5.08336815321459,-1.79998790147719,-1.78905899320304,-0.894653875520641,-1.19417720790599,0.864954365123536,0.536772441492937
529.72366621067,106,4.89653369357061,-1.95127064021746,-1.18821177839256,-0.757653736266246,-0.487475491329132,0.335656488037351,-0.0637601062957134
530.725034199726,106,4.51424143638861,-1.98335062653925,-0.524069689307263,-0.448597239161215,-0.346374044541019,-0.581431933576227,-0.307051151227302
531.726402188782,106,5.02661161422699,-1.33300211491115,0.190893490287288,-0.111925378659372,-0.233079021199199,-1.0211608987667,-0.191915087139892
532.727770177838,106.590138166892,5.8753210533516,-1.09401597412845,0.0705772010071398,-0.2001071671654,-0.40480380260271,-0.807068543363642,-0.111490506003882
533.729138166895,107,5.47855036935689,-0.764246518823785,0.145161369778162,-0.187248367532753,-0.651495488918706,-0.589353452394585,-0.16134758465214
534.730506155951,107,4.61997244870013,-0.448155725680168,0.490390443316485,-0.0956298356137008,-0.762140212446873,-0.637703897125384,-0.0340632191661311
535.731874145007,107,4.53174604651172,-0.360225595348636,0.539510084505093,0.120640185728631,-1.45209010393685,-0.956607472936248,-0.195351842197938
536.733242134063,107,4.72521534883733,-1.4500790624734,-0.839272557266177,-0.83744959567491,-2.01989144655078,-0.559405361891549,-0.220129746063379
537.73461012312,107,4.86678715458286,-1.6232366228591,0.231788235994964,-0.650250006450439,-1.51609780300691,-0.568670351840246,-0.492854110261357
538.735978112176,107,4.98964499316017,-1.97564,0.575061249967575,-0.952823667583454,-1.27070524212783,0.730205864292718,0.326884841019753
539.73734610123,107,4.66418094391282,-1.97247843228489,0.470705498167197,-0.387806048149414,-1.79712048153713,1.03109905691647,0.591316383593251
540.738714090287,107,4.17931355677184,-0.98254264356511,-0.00584428704462563,-0.365127525437177,-1.32724603284886,0.708264403561849,-0.108775807388441
541.740082079343,107,4.50414671682598,-1.39403523119672,-0.0456639833518766,0.0552774615850252,-1.07126864979598,0.212533020680022,-0.194247858003178
542.741450068399,107,5.11282324213387,-1.07205914884194,-0.128614682360085,-0.253292740084791,-1.01345721751014,0.262448703971828,-0.158462593161229
543.742818057455,107,4.42397790697694,-0.928437472091668,0.0265233795330658,-0.431009481389398,-1.04544212402991,-0.0410489708505618,-0.0158909781360226
544.744186046511,107,4.07844302325582,-0.958826864536351,0.0284164051519798,-0.564243820161043,-0.874524314507815,-0.0944778837197494,-0.1958166882838
545.745554035568,106.392077975379,4.00456209302325,-0.933653172645128,-0.202217977848943,-0.381630622702329,-0.896395884265216,-0.0480750515912295,-0.256033030099272
546.746922024624,106,4.58833080711376,-1.23352927979602,-0.0838025491294696,0.00116900179607587,-1.11373593342288,-0.255908843593188,-0.0357687299685453
547.74829001368,106,5.39452216142304,-0.889016645963764,-0.741284838075242,-0.275658568836598,-1.24405298841635,-0.964462456545343,-0.394432567808074
548.749658002736,106,5.5660740218878,-1.17024659781708,-0.453001639768107,-1.3156088907257,-1.09257685020877,-0.782056796594096,-0.658288097557196
549.751025991793,106,5.39608075239383,-1.83766815594797,0.553405265108273,1.72962616550976,-1.46107761969728,1.09117967934312,0.241594785060126
550.752393980847,105.3852380301,5.18306975376218,-1.05555864568076,-2.12200475378381,-1.15988778797756,-1.15972593297186,0.657998542691016,0.042061607892762
551.753761969903,105,5.00579528043789,-1.82425625173549,-2.08213748472112,-0.87989610659075,-0.983377077274422,0.673338697696786,0.284439496851657
552.75512995896,104.382502051987,4.84017402188794,-1.98393,-0.799644978564908,-0.538181246981792,-0.383972761344517,-0.457176099106679,-0.095110436879521
553.756497948016,103.381134062931,5.37573790697635,-1.80460564364449,0.00132530644545168,-0.459345440905362,-0.284654631103373,-0.966973785142376,-0.0423521595903275
554.757865937072,102.379766073875,6.13659232558111,-1.42396145169949,0.104521314803002,0.00231730995200354,-0.533736846655524,-0.786091687570948,-0.194511787565924
555.759233926128,102,5.74905574555421,-0.590883862644002,0.188579625861503,-0.103003534770132,-0.716918810580051,-0.647397338896019,-0.0946934467843503
556.760601915184,101.377030095762,4.99799971272236,-0.451236206018366,0.506777764707931,-0.10875792944058,-0.985581717640849,-0.802700476807773,-0.0956785672922085
557.761969904241,100.375662106706,4.97270244870042,-0.544310789609833,0.816881132986869,0.0659585279926148,-1.63101574966468,-0.918483257591448,-0.298403379483744
558.763337893297,100,5.17371705882357,-1.2458831423669,-0.497554867242565,-1.42349266119686,-1.47260721568626,-0.215911123528792,-0.305818245098034
559.764705882353,100,5.37473166894672,-1.9727033269489,0.729359218323998,-1.11561695023497,-1.62305337757935,1.31278974394306,0.595454063264712
560.766073871409,100,5.35442372093019,-1.66389141528512,-0.20106206551693,-0.0941305289006718,-1.46986282558444,0.350796567440112,0.0460782662883
561.767441860466,100,5.26665381668941,-1.0662115469216,0.166555330617922,-0.649468911362687,-1.01259381741888,0.254678517376359,-0.168545395551538
562.768809849522,100,5.63609228454213,-0.918605540200194,-0.0424827615643092,-0.832289757361479,-0.820088697305388,0.266659664900296,-0.00711623125762515
563.770177838576,100.63254582763,6.14277447332377,-1.0688151676561,-0.0664737590792372,-0.0611935350961144,-0.795806932849706,-0.175989766336882,-0.180814903107508
564.771545827633,101,5.12855549931706,-1.0537190469613,-0.202228589887189,-0.56834831821703,-0.971026419285984,-0.0833347975735711,-0.131467780301964
565.772913816689,101.635281805742,5.24670001367955,-1.04219067099696,0.123224538734431,-0.31506804980253,-1.07671532881022,-0.130198465198088,-0.114411414502115
566.774281805745,102.636649794798,5.82879522571794,-1.18642290561111,0.00163003139397938,-0.20750580191595,-1.36282080709527,-0.813190099833485,-0.296884432554876
567.775649794801,103.638017783855,5.52684233926144,-1.59391508253372,-0.715054357675388,-0.477162151664601,-1.16009778932742,0.825942036655022,0.0305361159974371
568.777017783857,104,4.96963612859105,-1.46661497073121,-1.82729705006255,-0.398978994285036,-1.18080997297527,0.915452073326657,0.123848484035568
569.778385772914,104,5.10071466484268,-1.16691130368417,-2.1501596808043,-0.563004591770376,-1.28770656588953,0.942986242848719,0.30290087404062
570.77975376197,104,5.42741097127228,-1.83381504069413,-1.43643560466209,-0.678692430768907,-0.942074362247525,0.49414442216394,0.262544683181415
571.781121751026,104,5.5254324760602,-1.81477116892421,-0.0870153049369671,-0.564372175782444,-0.317242940764351,-0.884387608615799,-0.255754513550534
572.782489740082,104.644857729136,5.559489001368,-1.08737515758377,0.123752735868748,-0.109283316391009,-0.387114554164296,-0.853902706364323,-0.212773287279016
573.783857729139,105,5.33894393980831,-0.692670462377996,0.250941802370791,-0.0967742276012363,-0.653058256767482,-0.60102765151034,-0.168884539408449
574.785225718195,105.647593707248,5.20660316005465,-0.466411416199129,0.40876792422187,0.0193543632837203,-1.03413673448993,-0.821867652128263,0.0382037117254984
575.786593707251,106.648961696304,5.11748140902865,-0.76520135305179,0.575849546466823,-0.742152977335349,-1.95446577565488,-0.715324946930747,-0.134609437361023
576.787961696306,107,5.0283596580028,-1.92005061081083,0.840713229328969,-1.57327821954454,-1.42563696717538,0.583677920280284,-0.0383484702765952
577.789329685362,107,4.88101093023266,-1.97409799999477,0.128655337199592,-0.232988218603626,-1.50037375579871,0.707751404640303,0.127665462071119
578.790697674418,107,4.71814844049256,-1.46005487823614,-0.0287639987309101,-0.266174775329739,-1.32640764978496,0.721242470864364,0.0522745285342727
579.792065663474,106.345566347472,4.66528230278159,-1.1744326309169,-0.0278147364692643,-0.252076855267516,-1.06370885258204,0.366127746956139,-0.263424910694213
580.79343365253,105.344198358416,4.64124279525764,-0.94431380752368,-0.0720509293606241,-0.318654471203962,-0.861190846565041,0.13717242650114,-0.0637206942097173
581.794801641587,105,4.6172032877337,-0.940316646123694,0.152168535809329,-0.535857880915044,-0.92148908033057,0.0674025743040095,-0.20272960060962
582.796169630643,105,6.26923428180595,-1.08245090880073,-0.196157396383962,-0.0614046945508395,-1.22776033715333,-0.289875016261235,-0.241341376342063
583.797537619699,105,8.34962634746973,-1.12628956224755,-0.318995479900821,-0.225870825031887,-1.25181039550158,-0.727863440344595,-0.841950438919616
584.798905608755,105,7.8569147195618,-1.43648461695544,-0.772397741486288,-0.289301879244008,-1.05592235489253,-0.364739841128441,0.193305869903318
585.800273597812,105.662641586865,6.71762831737285,-1.62035100548407,0.170935025704488,-0.576391001030811,-1.07248304274619,0.94625376343492,-0.0325527446675286
586.801641586868,106,5.5783419151839,-1.33164596578901,-2.15799827633364,-0.809936526962286,-1.40189280664188,1.03805885772988,0.669593987690985
587.803009575924,106.665377564977,6.2531601915194,-1.94787733105179,-0.443009409934303,-1.08447570286593,-0.246124266505758,-0.295436114969979,-0.217758088422881
588.804377564978,107,6.0211768707255,-1.40174342268294,0.143590810165296,-0.23757243659165,-0.335943117254545,-0.744147746809731,-0.274175804655604
589.805745554035,107,5.46117433994567,-0.915310981361763,0.176860812215176,-0.273490888968925,-0.496933706849589,-0.651341510450655,-0.289155375620428
590.807113543091,107,4.90117180916583,-0.423347725857355,0.416476588197479,-0.190201138710528,-0.90059780302688,-0.659957833425725,-0.0990715325879537
591.808481532147,107,4.341169278386,-0.820429512124601,0.907266993291088,-0.237028303833069,-1.80150355608758,-0.785313063748236,-0.628259008755395
592.809849521203,107,5.05514531463723,-1.97682743596098,0.977532020777087,-1.20192715675146,-1.22671971955659,0.386693149206923,-0.33601189978247
593.81121751026,107,6.06774364569073,-1.97691922298226,0.413575424552372,-0.200982918269125,-1.88832935843141,0.911294397708047,0.351793256235033
594.812585499316,107,6.23298790697674,-1.76566384887304,-0.0259038780426913,-0.174390095882691,-1.42791287210826,0.696092301739959,0.223388858511465
595.813953488372,107.676321477426,6.20312711354309,-1.20102399838467,-0.0806557401971781,-0.521602547116101,-1.07731202640447,0.247786028485722,-0.25413112324785
596.815321477428,108,6.31782307797542,-0.874244123846502,0.00758023071998368,-0.334666321294709,-1.02862744979775,0.0887958558099253,0.0560658902419425
597.816689466485,108,6.46520775649802,-0.955393420313389,0.0519312254074563,-0.600524763747309,-0.850307495984343,-0.0605047927138648,-0.105962222843993
598.818057455541,108.680425444594,6.61259243502061,-0.953119012007388,-0.155809460828975,-0.863494090904468,-1.10264171545213,-0.15910545943449,-0.193462621065927
599.819425444597,109,6.00338751025932,-1.21416822163829,0.231134901115073,0.0247858179754296,-1.29321842339142,-0.208177665662781,-0.131498916989876
600.820793433651,109,5.22773287277771,-1.31586799162121,-0.431297980831098,-1.21625522318682,-1.08629351800937,-1.21654301016534,-0.402292950499096
601.822161422708,109,5.29390784313707,-1.58498866181395,0.394996184663958,1.787175782071,-1.98400599990143,1.97047528711292,0.995291499897228
602.823529411764,109,5.54187326037377,-1.25061441085093,-2.15509412266299,-0.389592555474161,-0.787521625871457,0.597854509691626,-0.178436294368627
603.82489740082,108.312734610126,5.78983867761047,-1.14508591403208,-2.15577237665287,-0.662518106974197,-1.16124872950523,0.513489505187061,0.502727407305957
604.826265389876,108,5.41492583447348,-1.98420906429548,-0.998900719291204,-0.653530594869372,-0.625941881920461,0.475749148952437,0.0871142047916771
605.827633378933,108,4.90926003419981,-1.57633012249031,0.14283774881038,-0.173696186088182,-0.211321880788334,-0.773961737482856,-0.349224892256021
606.829001367989,108,4.90706793433652,-0.610859346918076,0.360253316247584,-0.429804615219835,-0.630983518907016,-0.555860390316831,-0.168729268282298
607.830369357045,107.307262653901,5.00855658002737,-0.508978442642308,0.945275224630156,0.124278776345992,-1.14670971085438,-0.89895353698951,-0.122220003288135
608.831737346101,107.694105335155,5.11004522571822,-1.32569537877576,0.495819146852715,-0.81010813601761,-2.01845448149747,-0.274806946225924,-0.203162342688578
609.833105335158,108,5.21269378932973,-1.97533403967132,0.412434338332249,-0.968939624578828,-1.73154831464448,0.983926259364608,0.48261432606753
610.834473324214,108,5.31557433652537,-1.58793715870536,0.0945417637997722,-0.228535725092975,-1.56677699008201,0.699328931634664,0.232045234739812
611.83584131327,108.698209302323,5.41707767441868,-1.12928268837265,-0.0167570794882241,-0.119553005023425,-1.13693720350179,0.535105387795689,-0.0155637503998496
612.837209302326,109,5.51831097127232,-1.06138924658495,0.0447699827258054,-0.197980381402514,-1.00821509614069,0.272723771622278,0.00202707052848111
613.838577291381,109,5.55273082079342,-1.00811215266034,-0.024332686903068,-0.300936765707795,-0.976429998973844,-0.00433913154069247,0.0183911877561465
614.839945280437,109,5.57431030095758,-0.892384349806144,-0.0182733010308672,-0.736433437874995,-0.81768983438437,-0.116901421051039,-0.138782640324756
615.841313269493,108.296318741453,5.54478116279072,-1.04863087140864,-0.633134250301255,-0.788177218079272,-1.28243948974065,-0.455783222779928,-0.223270849187466
616.842681258549,108,5.50562767441862,-1.31516465363063,-0.731431607243655,-1.73573896609022,-1.18230707798067,-0.874263275816726,-0.185072319158623
617.844049247606,107.293582763341,5.40433179206569,-1.63132107354505,0.347319808098224,0.0271408733452501,-1.08783754239337,-0.185647805909641,0.0465043007861734
618.845417236662,107,5.29157274965801,-1.10675136798184,-2.15523695348845,-0.482461969851754,-1.16285955829813,1.15392111463955,0.627226515944009
619.846785225718,107,4.83357294117643,-1.63048788915285,-1.72572406742192,-1.5548129716826,-0.790359631469158,0.995568312884273,0.432178348966945
620.848153214774,107,4.31320705882341,-1.98188562744989,-0.513095994254258,-0.297602215858071,-0.260508497541017,-0.634476064796609,-0.273059788223657
621.849521203831,107,5.17230699042448,-1.16677607864887,0.130519442136407,-0.0738606888645081,-0.5007080529228,-0.706741667179428,-0.194192785482665
622.850889192887,107,5.23877201094385,-0.625122152276327,0.299308548617795,-0.146655244456291,-0.767021277673524,-0.599021839393262,-0.222509445170613
623.852257181943,107,5.12387504787954,-0.351817940452114,0.290644290373615,-0.109851447728689,-1.19058699860382,-0.989089148552093,-0.0922436420507414
624.853625170999,107.715993160053,5.10145841997264,-1.25976587116969,0.318561314715677,-0.831085436508829,-1.91008987022166,-0.642822681459094,-0.498038511778729
625.854993160056,108,5.09487442544459,-1.71332765868709,-0.0870763066107308,-0.626876887017113,-1.30739914341662,0.271916238262143,-0.468998270586988
626.85636114911,108,5.03214777017789,-1.97691591518454,0.338478899704101,-0.402763779797768,-1.60480693023472,0.775061470123716,0.135410156137784
627.857729138166,108,4.96001923392617,-1.91409648790777,0.0205570961581502,-0.199124544863243,-1.36137939716987,0.640452731416609,0.0162526534532813
628.859097127222,108,5.16456895348827,-1.1739324930224,-0.00811728509599847,-0.606845838133719,-1.12291976162438,0.392133218554698,-0.222377449914145
629.860465116279,107.277166894668,5.41442528727763,-1.04589979121725,-0.0679118495314843,-0.121424845598054,-0.844136751323741,-0.0796231172522839,-0.11115004759245
630.861833105335,107,4.89375379616971,-1.16009551025308,-0.126884363831743,0.0280502460243029,-1.08973470484629,-0.0102076094293813,0.185995348222552
631.863201094391,107,4.24974900820792,-0.995091638905693,-0.0928113829908962,-0.637778273735748,-0.875448632844226,0.0137810637705543,-0.280849680268516
632.864569083447,107,5.29033387140924,-1.13207808025534,-0.121355453716006,-0.0577503201174795,-1.07430935387762,-1.25102209578818,-0.66595385791543
633.865937072504,107,6.5943853625175,-1.11821821203809,-0.357736904793408,-0.256748454447575,-0.997861107733232,0.200451407524406,0.184875707554107
634.86730506156,107.729673050613,6.46384647514804,-1.07306394165157,-0.746232305055024,-0.40574844236684,-1.13672156771653,-0.141890080860814,0.255649813130008
635.868673050616,108,6.11416543547631,-1.58081080702346,-0.681681815935664,-0.0563671208771651,-0.808587217953104,0.326720946102278,0.456162249015782
636.870041039672,108,5.76448439580457,-1.94521726948544,0.173469111653563,0.210108354965118,-0.840885941921612,-0.204624872815885,-0.478050100268313
637.871409028727,108,5.7963451025991,-1.05032907175656,-2.15594,-0.54519350454133,-1.21206362892658,1.14721106721437,0.453258602510856
638.872777017783,107.264854993164,5.88442042407654,-1.93737191894095,-1.19987941490407,-0.955596668388474,-0.651525428439085,-0.159108222113715,0.249668369628433
639.874145006839,107,5.79842625171006,-1.83371245005433,-0.0486481922251218,-0.338955623105934,-0.30920559594159,-0.765839997252476,-0.2134377306518
640.875512995895,106.262119015051,5.68740958960334,-1.8434758908832,0.128797110706203,-0.295763549458342,-0.223074142650172,-0.948686977249132,-0.0770516508968383
641.876880984952,106,5.93713808481522,-1.11037187481032,0.204478499672006,-0.216879360866147,-0.49300454930753,-0.667067776449503,-0.17099730849117
642.878248974008,106,6.2374383310533,-0.587284069299263,0.329305533581826,-0.0298441883957552,-1.0376627831516,-0.869440707069702,0.0787030420528624
643.879616963064,106,5.72414016415871,-0.211584053733017,0.663304225205643,-0.0431874741425603,-1.10269363521711,-0.895763545481154,0.1695893071156
644.88098495212,106,5.09966705882346,-0.499868808808125,0.970027235273346,-0.503785568679624,-1.64866711770241,-0.967481894061006,-0.10794173704003
645.882352941177,106,4.87563441860461,-1.33689437779918,-0.125721406954932,-1.02717914886716,-1.43041420928184,-0.704272199959553,-0.189719288350328
646.883720930233,106,4.70491119015041,-1.9757117195622,1.10913662243557,-0.240928251347585,-1.63206727428404,0.915365801709841,0.884844204791233
647.885088919289,106,5.05602741450091,-1.77558589739653,-0.185665010326944,-0.131956561760873,-1.04617351231174,0.32282922874807,-0.0785661547749165
648.886456908345,106,5.47478949384434,-1.1770907774755,0.00263535619867709,-0.224307643589177,-1.18479151164244,-0.0426428441103353,0.0641326355092169
649.887824897402,106,5.19815827633348,-1.02465720392417,-0.187587713809405,-0.295641269033099,-1.03530310164547,-0.170280535300847,-0.108570202846952
650.889192886456,106,5.27513577291371,-0.953495223156618,-0.0388004346982637,-0.36248722392865,-0.923018459184714,-0.0266225755170078,-0.026271042380141
651.890560875512,106,5.4070259507523,-1.00870217017646,-0.265917676403327,-0.245753428441236,-0.98322976366677,-0.228001644422189,-0.032603504829386
652.891928864568,106,6.64991835841239,-1.12041127651397,-0.481735066407902,-1.22884267402559,-1.26191407569346,-0.581847125398288,-0.257527378910975
653.893296853625,106,8.02721991792012,-1.1798440451373,-0.471317584680494,-0.889852207418489,-1.06478798202386,-0.816165381578897,-0.00890278777024721
654.894664842681,106,7.29677000684018,-1.6962127274434,1.16621171899675,0.260764970055113,-1.26007169423856,0.225153418154636,0.165310784020959
655.896032831737,106,6.31853862517109,-1.30937096498343,-1.71022357933349,-0.948460863293395,-1.04604282763474,0.896462703113566,0.0965942950044729
656.897400820793,106,6.16060904240766,-1.3302653118869,-2.15621847879603,-1.3830738709532,-1.39570818333103,0.645841663185661,0.102427151246825
657.89876880985,106.761136798903,6.09632121751025,-1.90105749108077,-1.35497574293061,-0.869663138873126,-0.800059515766217,0.525846274380967,0.600779287723841
658.900136798906,107,6.06393464204285,-1.94060006693851,-0.285039824782209,-1.03616946618087,-0.363016820459029,-0.179230328965873,-0.284811683032048
659.901504787962,107,6.03508189238485,-1.78881784818951,0.0613371686100202,0.0409378431112154,-0.147553081521185,-0.865162996855775,-0.10852676332084
660.902872777018,107.765240766072,6.00622914272684,-0.936511385728645,0.190588954096921,-0.161964091858764,-0.596453396435996,-0.63125207011926,-0.243727659508258
661.904240766075,108,5.33244108071077,-0.559564641800948,0.889064624373622,-0.0896721008299138,-1.21784344073579,-0.884586990757611,0.0451693112922637
662.905608755131,108,4.59045744185978,-0.410070220928043,0.673884852707243,-0.0303111911575373,-1.35448986045683,-0.818217539533666,-0.0014662846487381
663.906976744185,108,4.9542654309162,-1.74453716484649,0.840608588150938,-0.776631530098207,-1.28542838987609,0.0309869173799185,-0.173765856861673
664.908344733241,108,5.43131714090259,-1.97672697948018,1.27760308697237,-0.516340060941107,-1.67366844493003,1.10856778275565,0.788182589253063
665.909712722298,108,6.34626157318699,-1.75786869904466,0.0268711820547894,-0.533557445205194,-1.49930255472136,0.827082446575782,0.171631934720753
666.911080711354,108,7.30460077975347,-1.16242900429776,0.0373445062217039,-0.234808271958092,-1.19389409610508,0.517043565736138,-0.0746111853438955
667.91244870041,108,7.26516608390335,-1.17159858207335,-0.10944510864051,-0.12021437124944,-1.01613043091619,0.251415944319882,-0.0114056833370504
668.913816689466,108,7.13013628362973,-1.0108967648348,-0.0782883819602781,-0.267064055008733,-0.912617716541996,0.149915979488804,-0.0447955547471452
669.915184678523,108,6.99510648335611,-0.890139754241193,0.144127182789962,-0.302417071201696,-0.8836141864539,0.101483789413278,-0.0626108525227963
670.916552667579,108.778920656632,6.8600766830825,-1.0051830179361,0.00133123728385318,-0.467218738744467,-0.893481534097568,-0.0615803377978142,-0.115047049064593
671.917920656635,109,6.72504688280888,-1.16831561251218,-0.0653070311184519,-0.3037649715004,-1.20468892348274,-0.255520268010646,-0.237556058140054
672.919288645691,109,6.59001708253526,-1.2855434729652,-0.861450881117559,-0.0522489644555338,-1.19592535977507,-0.846558505448775,-0.449859373335904
673.920656634748,109,6.45498728226164,-1.4873248591022,-0.801218119492886,-1.35346190941818,-1.22613642641521,0.432113337655634,0.319727441518094
674.922024623802,109,6.31995748198827,-1.70110117235363,0.217374338732764,-0.0484032688986157,-1.58194478983426,0.272932629641056,0.210848962609153
675.923392612858,109,6.18492768171465,-1.16028059401192,-2.08827856999983,-0.736080568237578,-1.06970084744972,1.03948828642484,0.0576567968811347
676.924760601914,109,6.04989788144104,-1.69020856206908,-2.01671922980644,-0.928447162603903,-1.1658778970374,0.724319707617209,0.320543645113116
677.926128590971,108.211503419976,5.91486808116742,-1.9828712212733,-0.643023523184772,-1.03987725545405,-0.246015460811907,-0.489463940982457,-0.0713109658889259
678.927496580027,108,5.7798382808938,-1.73796518327765,0.174998194519436,0.0509726253229402,-0.283674996114053,-0.686046873625749,-0.229285441981549
679.928864569083,108,5.64480848062018,-1.11277347211503,0.184364797668527,-0.155585410465003,-0.450304505440976,-0.787479640294395,-0.122925883719519
680.930232558139,108,5.50977868034657,-0.49392133957809,0.385501395142224,-0.15868861454685,-0.796452730071227,-0.671417448821917,-0.211099954673661
681.931600547196,108,5.37474888007295,-0.521127453132929,1.14196225511698,-0.190516229698065,-1.65943951918081,-0.799890078300998,-0.280533731329145
682.932968536252,108.795336525305,5.38472841997264,-0.890990563842574,-0.790132564185123,-0.544787267093996,-1.60152726590561,-0.688630965637635,-0.642287764543797
683.934336525308,109,5.40511126538988,-1.97521566393057,0.898316971659189,-1.30178464061896,-1.1954961251766,0.623078627366307,0.388673358028806
684.935704514364,109.798072503418,5.15970755129945,-1.97625053214749,0.808323761388905,-0.640771912251921,-1.68356262845667,1.15502989574739,0.565326733145024
685.93707250342,110,4.70761915184647,-1.54267503856712,0.191759825060723,-0.333510350729068,-1.42224985431349,0.567707966757636,-0.133532262984012
686.938440492477,110,4.24289428180537,-1.15943834544355,-0.0565154332755735,-0.518555877104669,-1.10953131600254,0.357237820591739,-0.155860685923124
687.939808481531,110,4.07388705882366,-0.932949176468571,-0.0226241511582155,-0.368612035279023,-0.929592857843252,0.0447200188276713,-0.0360166499973015
688.941176470587,110,3.92379201094402,-0.894265126526999,0.0126496902891827,-0.854721401985199,-0.873068659447782,-0.127208218917625,-0.262837888520612
689.942544459644,110,4.86213184678466,-0.995653730027512,-0.00911744957327963,-0.401837852256311,-0.931713683686392,-0.0531129422877197,-0.175726441244959
690.9439124487,109.193719562247,5.86672424076566,-1.18357006138793,-0.0225352487582229,-0.304148952153784,-1.20495414124531,-0.33856903570734,-0.277492237691473
691.945280437756,109,5.6702801094392,-1.13392122848025,-0.900331094488805,-0.383496741510927,-1.17396079754581,-1.21786562615014,-0.685600889382186
692.946648426812,108.190983584134,5.40441190150482,-1.84943922270658,-0.675471316469171,0.215236950277529,-1.26466595285627,0.537812415259816,0.323661911124117
693.948016415869,108,5.16291439124486,-1.01820166596882,-2.03321236978845,-0.36703373967934,-1.17953406088106,0.901352701031913,0.0258445832599646
694.949384404925,108,4.92275129958956,-1.79031906019913,-2.03623063815186,-0.819838263619122,-1.23159851367516,0.975928019087048,0.555318055411345
695.950752393981,108,4.77023564979475,-1.98242541704133,-0.438976400939771,-0.470126158865228,-0.233126571959098,-0.595713884960541,-0.143021664092505
696.952120383037,108.814488372091,4.62225348837202,-1.28424904361539,0.05798815979668,-0.295669161041863,-0.260947176743955,-0.918473606396881,-0.178156381687877
697.953488372093,109,5.20851290013718,-0.689413489485481,0.192293556000959,-0.0971405403444316,-0.710003805337231,-0.649295639660939,-0.0831928134500247
698.95485636115,109,5.83053766073919,-0.340772713957274,0.32417571424787,-0.379668454500527,-1.26346250718616,-0.90588209678658,0.019558656981704
699.956224350206,109.818592339259,5.30240305061507,-0.614308,1.1138338436678,-0.742442354887501,-1.77143416131647,-0.639549596886211,-0.381877677576893
700.95759233926,110,4.72168972640263,-1.50212263602969,0.168199105779175,-0.46985855593466,-1.31501705608825,0.2354643452639,-0.156085976679164
701.958960328317,109.17867168263,5.50709145006788,-1.97751946374834,1.31597026853896,-0.577631173713427,-1.73538429018381,0.991554315547995,0.546881833465929
702.960328317373,109,5.18880842681276,-1.76949305026294,0.0567281799198629,-0.417295814812506,-1.47939710991611,0.76050160137042,0.455381186009564
703.961696306429,108.175935704518,4.82258812585511,-1.2667783108932,0.00678651366983284,-0.622204011866944,-1.09054294322696,0.0952645559670955,-0.0553667569442529
704.963064295485,108,5.0960805813953,-0.975922631490176,-0.13898974939059,-0.388804094630975,-0.867960265451217,0.204325572547322,-0.0716505032310976
705.964432284542,107.173199726405,5.3940726744186,-0.996903400479008,-0.0532307380563155,-0.184536464432079,-1.0232063378985,-0.037490173934725,0.0570307618567093
706.965800273598,107,5.05527634746918,-0.895453058346959,-0.0557081430003949,-0.402782507526815,-0.897024506358368,0.00848479249238636,-0.249602348974665
707.967168262654,107,4.69396274965791,-1.0544984634957,0.0334071341358795,-0.27687613049633,-1.02788346443421,-0.226247759912778,-0.0911460295738972
708.96853625171,107,5.84101512995945,-1.21255,-0.448704980248511,-0.197818465625849,-1.08923556497845,-0.602431977565074,-0.282502820519786
709.969904240766,107,7.03699898768876,-1.17445977310947,-0.831203980130987,-1.11012670410942,-1.28124770628726,-0.113438763106062,0.425004992587677
710.971272229823,107,6.24300958960269,-1.90692990612396,0.328506799086662,0.98786796541755,-1.22411185690073,0.000751110222630261,0.40043895468448
711.972640218879,107,5.54316389876822,-1.11143635977773,-2.15324044528056,-0.345872700416327,-1.26584587566217,1.20674030615905,0.150391149742173
712.974008207933,107,4.84761369357102,-1.90440588081602,-1.65840914704643,-1.77992898451688,-1.02400422436983,0.764389559824693,1.02007590736291
713.97537619699,107,5.39170813953449,-1.82678135462683,0.177499229071202,-0.232891906400306,-0.222961158140968,-0.575768889542455,-0.331565189531134
714.976744186046,107,5.96705413132664,-1.45723875841614,0.139591829304904,-0.159685160827553,-0.208878853757509,-0.785912907160125,-0.191864246601885
715.978112175102,106.159519835845,5.55439848153231,-0.662997046338853,0.233243123359552,-0.328922620311906,-0.677025051300576,-0.458509220994574,-0.080741085804259
716.979480164158,106,5.11966458276344,-0.414637226030065,0.324273624536032,-0.154085363659783,-1.45502274537517,-0.865189595738197,-0.548792418805098
717.980848153215,106,5.55646088919285,-1.65469191232626,0.305548487279021,-1.26643569666747,-1.34802752119632,0.124414180736446,-0.212814258821198
718.982216142271,106,6.01025082079346,-1.9758339668947,0.639901872845992,-0.873623356611329,-1.24373782899024,0.440752554514234,-0.0236760265310198
719.983584131327,106,5.83363692202458,-1.97625618490653,0.202138115199239,-0.178832399886178,-1.81411895040667,0.688320878938532,0.269577543730802
720.984952120383,106,5.64651629274959,-1.52948600724147,0.025618349287559,-0.0154848341998233,-1.34734582298936,0.520349052169235,0.0344579172805951
721.986320109439,106,5.83900370725044,-1.14233506785273,0.011504677897226,-0.45920669438431,-0.893786197054352,0.0690194773365616,-0.0408274538946129
722.987688098496,106,6.03674885088932,-0.874209779691839,-0.236297039927677,-0.33323074983985,-0.963629636805117,-0.133528297599172,0.111190834209008
723.989056087552,106,5.24057867304998,-1.02764404812634,0.121319406311843,-0.237381824355443,-1.010306453177,0.0429384007624683,-0.0360553956078233
724.990424076606,106,4.43342600547267,-1.02923233365096,-0.190454382147435,-0.279582423327311,-0.944540107079841,-0.0445468764125287,-0.12757731935625
725.991792065663,106.854160054716,4.85531883720899,-1.09861092099681,0.0817227466421664,-0.408796023810771,-1.30747094736725,-0.281694197889977,-0.32390511555552
726.993160054719,107,5.28736906976719,-1.24653600957834,-0.403840141228402,-0.245124109441833,-1.11693357059796,-1.78292059013416,-0.643092583890974
727.994528043775,107,5.03463621067043,-1.74098986187645,-1.20765648545219,-0.656411619507287,-1.28101142478704,-0.00885932582775864,0.743379132442107
728.995896032831,107.858264021885,4.77814080711362,-1.46107760546699,-0.556408520269228,1.24387894699739,-0.919546574546171,0.480767747247485,0.0232882543848432
729.997264021888,108,4.9976932831737,-1.07732211114922,-2.12040910294984,-0.569726941239485,-1.22950750850541,1.08613214295498,0.0911241839992651
